timestamp,acceleration_x,acceleration_y,acceleration_z,angular_velocity_x,angular_velocity_y,angular_velocity_z,status,is_optional_available,est_latitude,est_longitude,est_attitude_psi,est_longitudinal_slope,est_cross_slope,corrected_velocity,corrected_yawrate,odometry_x,odometry_y,odometry_rz
1.72604e+09,-1.0376,0.0183105,-9.44824,-0.00287621,0.0197074,-0.000106526,1175,1,35.4517,139.636,-601.115,0,0,0,0.00124419,373.25,912.23,-3.6
1.72604e+09,-1.20239,0.137329,-9.43298,-0.0036219,0.0221575,0.000852212,3223,1,35.4517,139.636,-601.116,0,0,0,0.00071156,373.25,912.23,-3.6
1.72604e+09,-1.27869,-0.0366211,-9.53979,-0.00500674,0.0252468,0.000426106,1175,1,35.4517,139.636,-601.116,0,0,0,0.00071156,373.25,912.23,-3.6
1.72604e+09,-1.37634,0.106812,-9.63135,-0.00436758,0.0284426,-0.000426106,1175,1,35.4517,139.636,-601.116,0,0,0,7.24009e-05,373.25,912.23,-3.6
1.72604e+09,-1.49536,0.10376,-9.67102,-0.00532632,0.0297209,0.000639159,1175,1,35.4517,139.636,-601.124,0,0,0,0.00104098,373.25,912.23,-3.6
1.72604e+09,-1.52283,-0.0183105,-9.82361,-0.00479369,0.0295078,0.00138484,5271,1,35.4517,139.636,-601.124,0,0,0,0.000614871,373.25,912.23,-3.6
1.72604e+09,-1.58997,0.0701904,-9.8938,-0.00575243,0.0305731,0.000106526,3223,1,35.4517,139.636,-601.124,0,0,0,-0.000237341,373.25,912.23,-3.6
1.72604e+09,-1.6449,0.109863,-10.0006,-0.00617853,0.0295078,0.000319579,1175,1,35.4517,139.636,-601.124,0,0,0,-0.000237341,373.25,912.23,-3.6
1.72604e+09,-1.67236,-0.0152588,-10.0739,-0.00585895,0.0262055,0.000852212,1175,1,35.4517,139.636,-601.128,0,0,0,0.00157361,373.25,912.23,-3.6
1.72604e+09,-1.75171,0.0305176,-10.0861,-0.00660464,0.024288,0.000106526,1175,1,35.4517,139.636,-601.132,0,0,0,0.000301616,373.25,912.23,-3.6
1.72604e+09,-1.76697,0.0610352,-10.144,-0.00426106,0.0213053,0.00117179,1175,1,35.4517,139.636,-601.133,0,0,0,0.000514668,373.25,912.23,-3.6
1.72604e+09,-1.80359,0.0244141,-10.1715,-0.00553938,0.018216,0.00149137,3223,1,35.4517,139.636,-601.134,0,0,0,0.0010473,373.25,912.23,-3.6
1.72604e+09,-1.78833,0.00915527,-10.1868,-0.00596548,0.0152333,0.000958738,1175,1,35.4517,139.636,-601.134,0,0,0,0.0010473,373.25,912.23,-3.6
1.72604e+09,-1.79138,0.0610352,-10.1837,-0.00681769,0.01012,0,1175,1,35.4517,139.636,-601.137,0,0,0,0.00136688,373.25,912.23,-3.6
1.72604e+09,-1.8219,0.0366211,-10.1685,-0.00703075,0.00735032,0.000745685,1175,1,35.4517,139.636,-601.143,0,0,0,0.00169162,373.25,912.23,-3.6
1.72604e+09,-1.828,0.0305176,-10.1196,-0.00703075,0.0052198,0.000426106,1175,1,35.4517,139.636,-601.144,0,0,0.13421,0.00115899,373.25,912.23,-3.6
1.72604e+09,-1.828,0.0640869,-10.0922,-0.0072438,0.00138484,-0.000319579,3223,1,35.4517,139.636,-601.144,0,0,0.188465,0.000200254,373.25,912.23,-3.6
1.72604e+09,-1.82495,0.0396729,-10.0555,-0.00809601,-0.00127832,-0.00127832,1175,1,35.4517,139.636,-601.144,0,0,0.188465,0.000200254,373.25,912.23,-3.6
1.72604e+09,-1.81885,0.0579834,-9.9884,-0.0076699,-0.00308927,-0.000426106,1175,1,35.4517,139.636,-601.146,0,0,0.296975,0.00062636,373.25,912.23,-3.6
1.72604e+09,-1.84937,0.0701904,-9.90906,-0.00735032,-0.00458064,-0.000852212,1175,1,35.4517,139.636,-601.153,0,0,0.345517,-0.000108268,373.28,912.23,-3.6
1.72604e+09,-1.83105,0.0579834,-9.85718,-0.00692422,-0.00671117,-0.000745685,1175,1,35.4517,139.636,-601.152,0,0,0.391205,-0.00106701,373.28,912.23,-3.6
1.72604e+09,-1.81885,0.0640869,-9.76868,-0.00617853,-0.00703075,-0.00127832,3223,1,35.4517,139.636,-601.152,0,0,0.445459,-0.000214795,373.28,912.23,-3.6
1.72604e+09,-1.83105,0.0640869,-9.72595,-0.00479369,-0.00756338,-0.000639159,1175,1,35.4517,139.636,-601.152,0,0,0.445459,-0.000214795,373.3,912.23,-3.6
1.72604e+09,-1.84631,0.0701904,-9.67407,-0.00468716,-0.00777643,0.000319579,1175,1,35.4517,139.636,-601.15,0,0,0.53398,-0.000534374,373.3,912.23,-3.6
1.72604e+09,-1.8158,0.0610352,-9.65271,-0.00383495,-0.00735032,0.000426106,1175,1,35.4517,139.636,-601.154,0,0,0.579665,-0.00106029,373.34,912.23,-3.6
1.72604e+09,-1.84021,0.0671387,-9.62524,-0.00447411,-0.00820254,-0.000106526,1175,1,35.4517,139.636,-601.153,0,0,0.622498,-0.000421136,373.34,912.23,-3.6
1.72604e+09,-1.85547,0.201416,-9.56726,-0.00628506,-0.00681769,0.000958738,3223,1,35.4517,139.636,-601.154,0,0,0.662475,0.000537602,373.34,912.23,-3.6
1.72604e+09,-1.75476,-0.0701904,-9.64355,-0.00617853,-0.00543285,-0.000852212,1175,1,35.4517,139.636,-601.154,0,0,0.662475,0.000537602,373.37,912.22,-3.6
1.72604e+09,-1.8158,0.198364,-9.61914,-0.00830906,-0.00585895,-0.000852212,1175,1,35.4517,139.636,-601.154,0,0,0.750995,0.000111496,373.37,912.22,-3.6
1.72604e+09,-1.75781,0.00305176,-9.60083,-0.00862864,-0.0036219,0.00138484,1175,1,35.4517,139.636,-601.156,0,0,0.79382,0.00117916,373.41,912.22,-3.6
1.72604e+09,-1.68152,-0.161743,-9.73816,-0.0076699,-0.004048,-0.000426106,3223,1,35.4517,139.636,-601.156,0,0,0.836652,-0.000631789,373.41,912.22,-3.6
1.72604e+09,-1.72119,0.0946045,-9.71985,-0.0105461,-0.00266316,-0.00308927,1175,1,35.4517,139.636,-601.155,0,0,0.876629,-0.000631789,373.41,912.22,-3.6
1.72604e+09,-1.59302,-0.0183105,-9.82666,-0.00713727,-0.00372843,-0.00351537,3223,1,35.4517,139.636,-601.155,0,0,0.876629,-0.000631789,373.46,912.22,-3.6
1.72604e+09,-1.59302,-0.170898,-9.82971,-0.00692422,-0.00500674,-0.00383495,1175,1,35.4517,139.636,-601.164,0,0,0.95943,-0.000192855,373.46,912.22,-3.6
1.72604e+09,-1.55945,0.0305176,-9.82361,-0.00756338,-0.00372843,-0.00585895,1175,1,35.4517,139.636,-601.16,0,0,0.999406,-0.00285602,373.51,912.21,-3.6
1.72604e+09,-1.4679,0.00610352,-9.90906,-0.004048,-0.00575243,-0.00585895,1175,1,35.4517,139.636,-601.159,0,0,1.03938,-0.00327869,373.51,912.21,-3.6
1.72604e+09,-1.50146,0.140381,-9.8877,-0.00255663,-0.00543285,-0.00532632,3223,1,35.4517,139.636,-601.155,0,0,1.0765,-0.00359827,373.51,912.21,-3.6
1.72604e+09,-1.3916,-0.0213623,-9.88464,-0.00436758,-0.00596548,-0.00713727,1175,1,35.4517,139.636,-601.155,0,0,1.0765,-0.00359827,373.57,912.21,-3.6
1.72604e+09,-1.41296,0.38147,-9.90906,-0.00639159,-0.00607201,-0.00788296,1175,1,35.4517,139.636,-601.142,0,0,1.15646,-0.00562227,373.57,912.21,-3.6
1.72604e+09,-1.34277,0.00915527,-9.79309,-0.0056459,-0.00937433,-0.00372843,1175,1,35.4517,139.636,-601.15,0,0,1.19356,-0.00507071,373.63,912.21,-3.6
1.72604e+09,-1.28479,0.0244141,-9.86633,-0.00990696,-0.00841559,-0.00671117,1175,1,35.4517,139.636,-601.142,0,0,1.22782,-0.00688166,373.63,912.21,-3.6
1.72604e+09,-1.37024,0.338745,-9.75037,-0.0116114,-0.00788296,-0.00617853,3223,1,35.4517,139.636,-601.133,0,0,1.26209,-0.00762735,373.63,912.21,-3.6
1.72604e+09,-1.20544,-0.00915527,-9.80835,-0.00969391,-0.00809601,-0.00447411,1175,1,35.4517,139.636,-601.133,0,0,1.26209,-0.00762735,373.7,912.2,-3.6
1.72604e+09,-1.26648,-0.0732422,-9.73511,-0.0115049,-0.00873517,-0.00628506,1175,1,35.4517,139.636,-601.119,0,0,1.33062,-0.00645556,373.7,912.2,-3.6
1.72604e+09,-1.27869,0.17395,-9.7168,-0.0131028,-0.00649811,-0.00809601,1175,1,35.4517,139.636,-601.121,0,0,1.36199,-0.00591055,373.77,912.2,-3.7
1.72604e+09,-1.21155,-0.0274658,-9.76868,-0.00894822,-0.00852212,-0.00703075,1175,1,35.4517,139.636,-601.115,0,0,1.3934,-0.00420613,373.77,912.2,-3.7
1.72604e+09,-1.22375,-0.0762939,-9.71069,-0.00735032,-0.00852212,-0.00852212,3223,1,35.4517,139.636,-601.109,0,0,1.42481,-0.00601708,373.77,912.2,-3.7
1.72604e+09,-1.19629,0.0793457,-9.73816,-0.00820254,-0.00543285,-0.00884169,1175,1,35.4517,139.636,-601.109,0,0,1.42481,-0.00601708,373.84,912.19,-3.7
1.72604e+09,-1.21155,0.0976563,-9.70764,-0.00458064,-0.00713727,-0.00788296,1175,1,35.4517,139.636,-601.093,0,0,1.48477,-0.00676276,373.84,912.19,-3.7
1.72604e+09,-1.15967,0.0305176,-9.73816,-0.0036219,-0.00798948,-0.00617853,1175,1,35.4517,139.636,-601.084,0,0,1.51614,-0.00825212,373.92,912.19,-3.7
1.72604e+09,-1.16882,0.146484,-9.69238,-0.00543285,-0.00575243,-0.00830906,1175,1,35.4517,139.636,-601.074,0,0,1.54754,-0.0085717,373.92,912.19,-3.7
1.72604e+09,-1.19934,0.189209,-9.69849,-0.00383495,-0.00585895,-0.00585895,3223,1,35.4517,139.636,-601.065,0,0,1.5761,-0.00761296,373.92,912.19,-3.7
1.72604e+09,-1.14746,0.0518799,-9.71069,-0.00447411,-0.00575243,-0.004048,1175,1,35.4517,139.636,-601.065,0,0,1.5761,-0.00761296,374,912.18,-3.7
1.72604e+09,-1.19019,0.119019,-9.71069,-0.00436758,-0.00500674,-0.00511327,1175,1,35.4517,139.636,-601.048,0,0,1.63035,-0.00803907,374,912.18,-3.7
1.72604e+09,-1.19629,0.170898,-9.76257,-0.00255663,-0.00575243,-0.00490022,1175,1,35.4517,139.636,-601.045,0,0,1.65599,-0.00558204,374.08,912.17,-3.7
1.72604e+09,-1.16272,0.0274658,-9.73816,-0.00298274,-0.00553938,-0.00458064,5271,1,35.4517,139.636,-601.041,0,0,1.68454,-0.00377109,374.08,912.17,-3.7
1.72604e+09,-1.2085,0.0854492,-9.70154,-0.00330232,-0.00585895,-0.00532632,3223,1,35.4517,139.636,-601.035,0,0,1.71024,-0.00483635,374.08,912.17,-3.7
1.72604e+09,-1.24512,0.0701904,-9.75342,-0.004048,-0.00458064,-0.0056459,1175,1,35.4517,139.636,-601.035,0,0,1.71024,-0.00483635,374.16,912.17,-3.8
1.72604e+09,-1.24817,0.0274658,-9.66492,-0.00308927,-0.00500674,-0.00713727,1175,1,35.4517,139.636,-601.026,0,0,1.76449,-0.00430372,374.16,912.17,-3.8
1.72604e+09,-1.29395,0.0427246,-9.61304,-0.00479369,-0.00223706,-0.00681769,1175,1,35.4517,139.636,-601.034,0,0,1.79012,-0.00502867,374.25,912.16,-3.8
1.72604e+09,-1.33362,0.0152588,-9.61609,-0.00649811,-0.00117179,-0.00820254,1175,1,35.4517,139.636,-601.028,0,0,1.81867,-0.00534825,374.25,912.16,-3.8
1.72604e+09,-1.35193,0.0701904,-9.60693,-0.00830906,0.000319579,-0.00905475,3223,1,35.4517,139.636,-601.02,0,0,1.84151,-0.00683962,374.25,912.16,-3.8
1.72604e+09,-1.36414,-0.0823975,-9.65881,-0.00852212,0.00234358,-0.0104396,1175,1,35.4517,139.636,-601.02,0,0,1.84151,-0.00683962,374.35,912.16,-3.8
1.72604e+09,-1.40381,-0.0366211,-9.68018,-0.00575243,0.004048,-0.0103331,1175,1,35.4517,139.636,-601.003,0,0,1.89291,-0.00790488,374.35,912.16,-3.8
1.72604e+09,-1.44043,0.112915,-9.67102,-0.00511327,0.00500674,-0.0100135,1175,1,35.4517,139.636,-600.984,0,0,1.91852,-0.00876629,374.44,912.15,-3.8
1.72604e+09,-1.44348,0.00915527,-9.73511,-0.000639159,0.00426106,-0.00841559,1175,1,35.4517,139.636,-600.972,0,0,1.95278,-0.0101511,374.44,912.15,-3.8
1.72604e+09,-1.52283,0.0518799,-9.66187,0,0.00468716,-0.00852212,3223,1,35.4517,139.636,-600.961,0,0,1.97848,-0.0100446,374.44,912.15,-3.8
1.72604e+09,-1.53198,0.265503,-9.69238,0.00223706,0.00479369,-0.00862864,1175,1,35.4517,139.636,-600.961,0,0,1.97848,-0.0100446,374.54,912.14,-3.8
1.72604e+09,-1.474,0.234985,-9.73511,0.00447411,0.00553938,-0.00575243,1175,1,35.4517,139.636,-600.942,0,0,2.04128,-0.00812713,374.54,912.14,-3.8
1.72604e+09,-1.52588,0.222778,-9.8053,0.002024,0.00394148,-0.0036219,1175,1,35.4517,139.636,-600.921,0,0,2.07259,-0.0082474,374.65,912.13,-3.8
1.72604e+09,-1.49231,0.253296,-9.85718,-0.000426106,0.00436758,-0.00234358,1175,1,35.4517,139.636,-600.911,0,0,2.10113,-0.00835393,374.65,912.13,-3.8
1.72604e+09,-1.49841,0.186157,-9.94873,-0.00223706,0.00319579,-0.000852212,3223,1,35.4517,139.636,-600.905,0,0,2.12968,-0.00547772,374.65,912.13,-3.8
1.72604e+09,-1.53198,0.0854492,-9.95178,-0.00628506,0.000319579,-0.000852212,1175,1,35.4517,139.636,-600.905,0,0,2.12968,-0.00547772,374.75,912.13,-3.9
1.72604e+09,-1.53503,0.0610352,-9.93958,-0.00745685,0.00117179,-0.00138484,1175,1,35.4517,139.636,-600.901,0,0,2.19534,-0.00206887,374.75,912.13,-3.9
1.72604e+09,-1.52893,-0.0244141,-9.93652,-0.00820254,0.000319579,-0.0015979,1175,1,35.4517,139.636,-600.894,0,0,2.22376,-0.0005836,374.86,912.12,-3.9
1.72604e+09,-1.55029,-0.131226,-9.8877,-0.00713727,-0.000213053,-0.00245011,1175,1,35.4517,139.636,-600.893,0,0,2.25802,-0.0005836,374.86,912.12,-3.9
1.72604e+09,-1.53503,-0.146484,-9.96094,-0.00894822,-0.000958738,-0.00436758,3223,1,35.4517,139.636,-600.892,0,0,2.29228,-0.00111623,374.86,912.12,-3.9
1.72604e+09,-1.51367,-0.125122,-9.91516,-0.01012,-0.000958738,-0.00628506,1175,1,35.4517,139.636,-600.892,0,0,2.29228,-0.00111623,374.98,912.11,-3.9
1.72604e+09,-1.52893,-0.00305176,-9.93958,-0.0115049,-0.00213053,-0.00777643,1175,1,35.4517,139.636,-600.887,0,0,2.35222,-0.0021815,374.98,912.11,-3.9
1.72604e+09,-1.48621,-0.170898,-9.86633,-0.0118244,-0.00330232,-0.00809601,1175,1,35.4517,139.636,-600.848,0,0,2.38631,-0.00414024,375.1,912.1,-3.9
1.72604e+09,-1.48315,-0.0396729,-9.91516,-0.0149137,-0.00351537,-0.0111853,1175,1,35.4517,139.636,-600.841,0,0,2.41771,-0.00605772,375.1,912.1,-3.9
1.72604e+09,-1.48926,0.12207,-9.8114,-0.0184291,-0.004048,-0.0111853,3223,1,35.4517,139.636,-600.833,0,0,2.45196,-0.00754909,375.1,912.1,-3.9
1.72604e+09,-1.41907,-0.0732422,-9.86633,-0.0158724,-0.00511327,-0.0105461,1175,1,35.4517,139.636,-600.833,0,0,2.45196,-0.00754909,375.22,912.09,-3.9
1.72604e+09,-1.48621,-0.0274658,-9.69543,-0.016192,-0.00596548,-0.0126766,1175,1,35.4517,139.636,-600.808,0,0,2.51191,-0.0109579,375.22,912.09,-3.9
1.72604e+09,-1.46179,0.20752,-9.74121,-0.0162985,-0.00319579,-0.0134223,1175,1,35.4517,139.636,-600.759,0,0,2.5431,-0.0110017,375.35,912.08,-4
1.72604e+09,-1.4679,0.180054,-9.65576,-0.0104396,-0.00500674,-0.0116114,1175,1,35.4517,139.636,-600.747,0,0,2.57735,-0.0103626,375.35,912.08,-4
1.72604e+09,-1.49231,0,-9.60999,-0.00809601,-0.00394148,-0.0123571,3223,1,35.4517,139.636,-600.733,0,0,2.6059,-0.0124931,375.35,912.08,-4
1.72604e+09,-1.45264,0.460815,-9.69543,-0.00639159,-0.00330232,-0.0112918,1175,1,35.4517,139.636,-600.733,0,0,2.6059,-0.0124931,375.48,912.07,-4
1.72604e+09,-1.44348,0.378418,-9.63135,-0.00234358,-0.00458064,-0.00777643,1175,1,35.4517,139.636,-600.706,0,0,2.66869,-0.0114279,375.48,912.07,-4
1.72604e+09,-1.3855,0.27771,-9.83887,0.000319579,-0.00660464,-0.00298274,1175,1,35.4517,139.636,-600.677,0,0,2.70555,-0.0121907,375.61,912.06,-4
1.72604e+09,-1.38855,0.469971,-9.76563,-0.000745685,-0.00703075,-0.000958738,1175,1,35.4517,139.636,-600.665,0,0,2.73694,-0.0111255,375.61,912.06,-4
1.72604e+09,-1.3855,0.332642,-9.84497,0.000532632,-0.00884169,0.00276969,3223,1,35.4517,139.636,-600.656,0,0,2.76833,-0.00761008,375.61,912.06,-4
1.72604e+09,-1.37939,0.143433,-9.79919,-0.00138484,-0.0106526,0.00532632,1175,1,35.4517,139.636,-600.656,0,0,2.76833,-0.00761008,375.75,912.06,-4
1.72604e+09,-1.37939,0.189209,-9.77478,-0.00223706,-0.00798948,0.00532632,1175,1,35.4517,139.636,-600.654,0,0,2.82541,-0.000792391,375.75,912.06,-4
1.72604e+09,-1.37329,0.0793457,-9.8053,-0.00149137,-0.00777643,0.00660464,1175,1,35.4517,139.636,-600.657,0,0,2.85369,0.00293754,375.89,912.05,-4
1.72604e+09,-1.41602,-0.0946045,-9.7168,-0.00426106,-0.00756338,0.00596548,1175,1,35.4517,139.636,-600.663,0,0,2.88509,0.00549417,375.89,912.05,-4
1.72604e+09,-1.35193,-0.271606,-9.66797,-0.00511327,-0.00596548,0.00287621,3223,1,35.4517,139.636,-600.669,0,0,2.91648,0.00549417,375.89,912.05,-4
1.72604e+09,-1.40686,-0.012207,-9.67102,-0.0072438,-0.00351537,0.00149137,1175,1,35.4517,139.636,-600.669,0,0,2.91648,0.00549417,376.04,912.03,-4
1.72604e+09,-1.34583,-0.292969,-9.65271,-0.00596548,-0.00351537,0.000319579,1175,1,35.4517,139.636,-600.683,0,0,2.9764,0.00613333,376.04,912.03,-4
1.72604e+09,-1.31226,-0.238037,-9.78088,-0.00415453,-0.00127832,-0.00255663,1175,1,35.4517,139.636,-600.673,0,0,3.00464,0.00302872,376.18,912.02,-4
1.72604e+09,-1.36108,0.00305176,-9.8114,-0.00383495,-0.00138484,-0.00319579,1175,1,35.4517,139.636,-600.675,0,0,3.03317,0.00164388,376.18,912.02,-4
1.72604e+09,-1.28784,-0.112915,-9.94873,-0.00106526,-0.00298274,-0.00191748,3223,1,35.4517,139.636,-600.675,0,0,3.06171,0.000472087,376.18,912.02,-4
1.72604e+09,-1.31836,-0.0274658,-10.0433,-0.00138484,-0.00458064,-0.00287621,1175,1,35.4517,139.636,-600.675,0,0,3.06171,0.000472087,376.34,912.01,-4
1.72604e+09,-1.31836,0.228882,-9.97314,-0.00490022,-0.00873517,-0.00287621,1175,1,35.4517,139.636,-600.668,0,0,3.12163,-0.00304329,376.34,912.01,-4
1.72604e+09,-1.27869,0.152588,-9.98535,-0.00511327,-0.0128897,-0.000532632,1175,1,35.4517,139.636,-600.613,0,0,3.15555,-0.00182973,376.49,912,-4
1.72604e+09,-1.32141,0.164795,-9.79919,-0.00681769,-0.0152333,0.000106526,5271,1,35.4517,139.636,-600.61,0,0,3.18408,-0.00278847,376.49,912,-4
1.72604e+09,-1.31531,0.256348,-9.8053,-0.00916127,-0.0152333,0.00191748,3223,1,35.4517,139.636,-600.607,0,0,3.21547,-0.00278847,376.49,912,-4
1.72604e+09,-1.31531,0.143433,-9.76868,-0.00692422,-0.0160855,0.00426106,1175,1,35.4517,139.636,-600.607,0,0,3.21547,-0.00278847,376.65,911.99,-4
1.72604e+09,-1.28479,0.131226,-9.61609,-0.0072438,-0.0154463,0.00468716,1175,1,35.4517,139.636,-600.607,0,0,3.26682,0.000194273,376.65,911.99,-4
1.72604e+09,-1.24817,0.106812,-9.7168,-0.00671117,-0.0153398,0.00436758,1175,1,35.4517,139.636,-600.557,0,0,3.29206,0.00194108,376.82,911.98,-4
1.72604e+09,-1.18103,0.0427246,-9.76868,-0.00426106,-0.0155529,0.00553938,1175,1,35.4517,139.636,-600.562,0,0,3.32344,0.00428466,376.82,911.98,-4
1.72604e+09,-1.1261,-0.0610352,-9.87549,-0.00138484,-0.0164051,0.00458064,3223,1,35.4517,139.636,-600.567,0,0,3.34912,0.00471077,376.82,911.98,-4
1.72604e+09,-1.14136,-0.0213623,-9.82666,0.000106526,-0.0183225,0.00298274,1175,1,35.4517,139.636,-600.567,0,0,3.34912,0.00471077,376.98,911.97,-4
1.72604e+09,-1.09558,-0.0366211,-9.87854,0.00351537,-0.0196009,0.00234358,1175,1,35.4517,139.636,-600.579,0,0,3.39761,0.00556298,376.98,911.97,-4
1.72604e+09,-1.05286,-0.0732422,-9.8114,0.00788296,-0.022051,0.00149137,1175,1,35.4517,139.636,-600.54,0,0,3.42285,0.00455051,377.15,911.96,-4
1.72604e+09,-1.05591,-0.0213623,-9.8175,0.0109722,-0.0209857,-0.00191748,1175,1,35.4517,139.636,-600.543,0,0,3.45137,0.00295262,377.15,911.96,-4
1.72604e+09,-1.00098,0.0823975,-9.78394,0.011931,-0.0235423,-0.0015979,3223,1,35.4517,139.636,-600.546,0,0,3.47704,0.00231346,377.15,911.96,-4
1.72604e+09,-0.976563,0.109863,-9.73206,0.0116114,-0.0230097,-0.00287621,1175,1,35.4517,139.636,-600.546,0,0,3.47704,0.00231346,377.32,911.95,-4
1.72604e+09,-0.967407,0.131226,-9.71069,0.0076699,-0.0208792,-0.00298274,1175,1,35.4517,139.636,-600.541,0,0,3.52838,-0.0019476,377.32,911.95,-4
1.72604e+09,-0.915527,0.183105,-9.73511,0.00287621,-0.0191748,-0.00287621,1175,1,35.4517,139.636,-600.515,0,0,3.5507,-0.00165606,377.5,911.93,-3.9
1.72604e+09,-0.88501,0.167847,-9.77783,-0.000532632,-0.0175769,-0.00276969,1175,1,35.4517,139.636,-600.512,0,0,3.57637,-0.00293438,377.5,911.93,-3.9
1.72604e+09,-0.900269,0.0640869,-9.7168,-0.00500674,-0.0152333,-0.000532632,3223,1,35.4517,139.636,-600.508,0,0,3.59633,-0.00304091,377.5,911.93,-3.9
1.72604e+09,-0.814819,0.112915,-9.80835,-0.00735032,-0.0150202,-0.000106526,1175,1,35.4517,139.636,-600.508,0,0,3.59633,-0.00304091,377.67,911.92,-3.9
1.72604e+09,-0.78125,0,-9.76868,-0.00692422,-0.0138484,0.0015979,1175,1,35.4517,139.636,-600.502,0,0,3.64196,-0.00282786,377.67,911.92,-3.9
1.72604e+09,-0.793457,-0.0854492,-9.77783,-0.00735032,-0.0133158,0.00266316,1175,1,35.4517,139.636,-600.505,0,0,3.66137,-0.000583611,377.86,911.91,-3.9
1.72604e+09,-0.732422,-0.0823975,-9.83582,-0.00479369,-0.0106526,0.00308927,1175,1,35.4517,139.636,-600.504,0,0,3.68704,-0.000157505,377.86,911.91,-3.9
1.72604e+09,-0.720215,-0.0793457,-9.75647,-0.00223706,-0.011931,0.00330232,3223,1,35.4517,139.636,-600.506,0,0,3.707,0.00154692,377.86,911.91,-3.9
1.72604e+09,-0.778198,-0.0762939,-9.75647,-0.00117179,-0.01012,0.00532632,1175,1,35.4517,139.636,-600.506,0,0,3.707,0.00154692,378.04,911.9,-3.9
1.72604e+09,-0.744629,0.0213623,-9.75342,-0.00234358,-0.0106526,0.00426106,1175,1,35.4517,139.636,-600.513,0,0,3.74977,0.00303829,378.04,911.9,-3.9
1.72604e+09,-0.726318,0.0183105,-9.57642,-0.00585895,-0.0113983,0.0056459,1175,1,35.4517,139.636,-600.499,0,0,3.76631,0.00323198,378.22,911.89,-3.9
1.72604e+09,-0.735474,0,-9.57947,-0.0104396,-0.00873517,0.00479369,1175,1,35.4517,139.636,-600.505,0,0,3.78912,0.00525599,378.22,911.89,-3.9
1.72604e+09,-0.692749,-0.00915527,-9.52454,-0.0127832,-0.00798948,0.00490022,3223,1,35.4517,139.636,-600.51,0,0,3.80622,0.00419072,378.22,911.89,-3.9
1.72604e+09,-0.67749,-0.0152588,-9.54895,-0.0145941,-0.00585895,0.00330232,1175,1,35.4517,139.636,-600.51,0,0,3.80622,0.00419072,378.41,911.87,-3.9
1.72604e+09,-0.686646,-0.00305176,-9.64661,-0.0156594,-0.00415453,0.00127832,1175,1,35.4517,139.636,-600.521,0,0,3.84329,0.00472335,378.41,911.87,-3.9
1.72604e+09,-0.668335,-0.00915527,-9.68323,-0.0166181,-0.00330232,0.00127832,1175,1,35.4517,139.636,-600.494,0,0,3.85978,0.00479263,378.6,911.86,-3.9
1.72604e+09,-0.653076,-0.0152588,-9.7168,-0.015979,-0.00191748,0.00106526,1175,1,35.4517,139.636,-600.498,0,0,3.88258,0.00319474,378.6,911.86,-3.9
1.72604e+09,-0.634766,0.0183105,-9.71985,-0.0155529,-0.002024,0.00170442,3223,1,35.4517,139.636,-600.499,0,0,3.89684,0.00117073,378.6,911.86,-3.9
1.72604e+09,-0.6073,0.0640869,-9.73511,-0.0143811,-0.00170442,0.00127832,1175,1,35.4517,139.636,-600.499,0,0,3.89684,0.00117073,378.79,911.85,-3.9
1.72604e+09,-0.604248,0.10376,-9.82971,-0.0127832,0,0.000639159,1175,1,35.4517,139.636,-600.501,0,0,3.93389,0.000957681,378.79,911.85,-3.9
1.72604e+09,-0.637817,0.012207,-9.7229,-0.00948085,0.000106526,0.00245011,1175,1,35.4517,139.636,-600.501,0,0,3.95022,0.00159665,378.99,911.84,-3.8
1.72604e+09,-0.592041,0.0671387,-9.66492,-0.00894822,0.000532632,0.00170442,1175,1,35.4517,139.636,-600.502,0,0,3.96447,0.00117054,378.99,911.84,-3.8
1.72604e+09,-0.549316,0.00915527,-9.58862,-0.00798948,0.00245011,0.00117179,3223,1,35.4517,139.636,-600.503,0,0,3.97872,0.000531384,378.99,911.84,-3.8
1.72604e+09,-0.509644,0.12207,-9.71375,-0.00649811,0.00553938,0.00319579,1175,1,35.4517,139.636,-600.503,0,0,3.97872,0.000531384,379.18,911.82,-3.8
1.72604e+09,-0.460815,0.115967,-9.68018,-0.00372843,0.00649811,0.00308927,1175,1,35.4517,139.636,-600.506,0,0,4.01577,0.00159665,379.18,911.82,-3.8
1.72604e+09,-0.405884,0.0671387,-9.8053,-0.0015979,0.00671117,0.00234358,1175,1,35.4517,139.636,-600.485,0,0,4.02639,0.00103906,379.38,911.81,-3.8
1.72604e+09,-0.445557,0.17395,-9.75952,-0.00543285,0.00735032,0.002024,1175,1,35.4517,139.636,-600.488,0,0,4.03779,0.00306306,379.38,911.81,-3.8
1.72604e+09,-0.372314,0.219727,-9.74121,-0.0104396,0.00745685,0.00223706,3223,1,35.4517,139.636,-600.492,0,0,4.05204,0.00295653,379.38,911.81,-3.8
1.72604e+09,-0.302124,0.140381,-9.62524,-0.0126766,0.00809601,0.00436758,1175,1,35.4517,139.636,-600.492,0,0,4.05204,0.00295653,379.58,911.8,-3.8
1.72604e+09,-0.326538,0.0427246,-9.52759,-0.00873517,0.00756338,0.00532632,1175,1,35.4517,139.636,-600.496,0,0,4.07483,0.00189127,379.58,911.8,-3.8
1.72604e+09,-0.317383,-0.0183105,-9.55811,0.00127832,0.0102265,0.00639159,1175,1,35.4517,139.636,-600.51,0,0,4.08833,0.00212162,379.78,911.78,-3.8
1.72604e+09,-0.265503,0.00915527,-9.53674,0.0123571,0.0109722,0.0076699,1175,1,35.4517,139.636,-600.515,0,0,4.10258,0.00425215,379.78,911.78,-3.8
1.72604e+09,-0.216675,0.100708,-9.59778,0.0203466,0.011931,0.00873517,3223,1,35.4517,139.636,-600.521,0,0,4.10827,0.00521089,379.78,911.78,-3.8
1.72604e+09,-0.201416,0.201416,-9.74731,0.0215183,0.0106526,0.00777643,1175,1,35.4517,139.636,-600.521,0,0,4.10827,0.00521089,379.98,911.77,-3.8
1.72604e+09,-0.137329,0.22583,-9.83582,0.0171508,0.0107592,0.00969391,1175,1,35.4517,139.636,-600.538,0,0,4.12822,0.00755447,379.98,911.77,-3.8
1.72604e+09,-0.158691,0.195313,-9.90601,0.0122505,0.00969391,0.0103331,1175,1,35.4517,139.636,-600.548,0,0,4.13877,0.00862257,380.19,911.76,-3.7
1.72604e+09,-0.164795,0.109863,-9.92126,0.00468716,0.00937433,0.00937433,5271,1,35.4517,139.636,-600.557,0,0,4.14731,0.00766383,380.19,911.76,-3.7
1.72604e+09,-0.140381,-0.0152588,-9.96399,-0.00298274,0.00553938,0.00809601,3223,1,35.4517,139.636,-600.567,0,0,4.15586,0.0095813,380.19,911.76,-3.7
1.72604e+09,-0.109863,-0.0854492,-10.0464,-0.00937433,0.00436758,0.00809601,1175,1,35.4517,139.636,-600.567,0,0,4.15586,0.0095813,380.39,911.75,-3.7
1.72604e+09,-0.146484,-0.222778,-9.98535,-0.00990696,0,0.0076699,1175,1,35.4517,139.636,-600.589,0,0,4.1758,0.00926173,380.39,911.75,-3.7
1.72604e+09,-0.0793457,-0.27771,-10.0555,-0.00649811,-0.00213053,0.00543285,1175,1,35.4517,139.636,-600.575,0,0,4.18358,0.00795727,380.59,911.73,-3.7
1.72604e+09,-0.0976563,-0.299072,-9.96704,-0.00372843,-0.0036219,0.00692422,1175,1,35.4517,139.636,-600.584,0,0,4.18643,0.00795727,380.59,911.73,-3.7
1.72604e+09,-0.177002,-0.247192,-9.8999,-0.000106526,-0.00415453,0.00532632,3223,1,35.4517,139.636,-600.592,0,0,4.19213,0.00753117,380.59,911.73,-3.7
1.72604e+09,-0.204468,-0.164795,-9.75342,-0.000106526,-0.00383495,0.00500674,1175,1,35.4517,139.636,-600.592,0,0,4.19213,0.00753117,380.8,911.72,-3.7
1.72604e+09,-0.167847,-0.0854492,-9.72595,0,-0.00149137,0.00394148,1175,1,35.4517,139.636,-600.608,0,0,4.19782,0.00678548,380.8,911.72,-3.7
1.72604e+09,-0.210571,0,-9.74731,0.000319579,0.000852212,0.00436758,1175,1,35.4517,139.636,-600.589,0,0,4.19976,0.00515974,381.01,911.71,-3.7
1.72604e+09,-0.186157,0.0701904,-9.78394,-0.002024,0.00276969,0.0056459,1175,1,35.4517,139.636,-600.595,0,0,4.20546,0.00484016,381.01,911.71,-3.7
1.72604e+09,-0.17395,0.0579834,-9.87244,-0.0052198,0.00415453,0.00596548,3223,1,35.4517,139.636,-600.599,0,0,4.214,0.0037749,381.01,911.71,-3.7
1.72604e+09,-0.238037,0.143433,-9.86938,-0.00585895,0.004048,0.00649811,1175,1,35.4517,139.636,-600.599,0,0,4.214,0.0037749,381.21,911.69,-3.6
1.72604e+09,-0.274658,0.131226,-9.8114,-0.00735032,0.00511327,0.00628506,1175,1,35.4517,139.636,-600.612,0,0,4.22539,0.00547932,381.21,911.69,-3.6
1.72604e+09,-0.222778,0.0549316,-9.8175,-0.00745685,0.00426106,0.00756338,1175,1,35.4517,139.636,-600.612,0,0,4.23018,0.00579425,381.42,911.68,-3.6
1.72604e+09,-0.253296,0.0549316,-9.89075,-0.00649811,0.0052198,0.00671117,1175,1,35.4517,139.636,-600.62,0,0,4.23588,0.00632689,381.42,911.68,-3.6
1.72604e+09,-0.250244,0.0335693,-9.9823,-0.00351537,0.00191748,0.00830906,3223,1,35.4517,139.636,-600.627,0,0,4.24442,0.00611383,381.42,911.68,-3.6
1.72604e+09,-0.238037,0.00305176,-10.0342,-0.00330232,0.0015979,0.00905475,1175,1,35.4517,139.636,-600.627,0,0,4.24442,0.00611383,381.63,911.67,-3.6
1.72604e+09,-0.32959,0.0457764,-10.0372,-0.00340885,-0.002024,0.00852212,1175,1,35.4517,139.636,-600.642,0,0,4.2558,0.00653994,381.63,911.67,-3.6
1.72604e+09,-0.296021,0.0488281,-10.08,-0.00394148,-0.00596548,0.00980043,1175,1,35.4517,139.636,-600.657,0,0,4.26068,0.00814799,381.83,911.66,-3.6
1.72604e+09,-0.317383,0.0244141,-9.93042,-0.00617853,-0.00990696,0.0092678,1175,1,35.4517,139.636,-600.667,0,0,4.26637,0.00889368,381.83,911.66,-3.6
1.72604e+09,-0.305176,0.00610352,-9.8877,-0.0056459,-0.0118244,0.00969391,3223,1,35.4517,139.636,-600.677,0,0,4.27206,0.00836105,381.83,911.66,-3.6
1.72604e+09,-0.341797,-0.0488281,-9.93042,-0.00649811,-0.012144,0.0100135,1175,1,35.4517,139.636,-600.677,0,0,4.27206,0.00836105,382.04,911.64,-3.5
1.72604e+09,-0.421143,-0.0976563,-9.77783,-0.00671117,-0.0120375,0.0104396,1175,1,35.4517,139.636,-600.697,0,0,4.28914,0.00910673,382.04,911.64,-3.5
1.72604e+09,-0.390625,-0.10376,-9.73206,-0.00809601,-0.012144,0.00894822,1175,1,35.4517,139.636,-600.701,0,0,4.29109,0.0095264,382.25,911.63,-3.5
1.72604e+09,-0.335693,-0.0823975,-9.79919,-0.0109722,-0.0108657,0.00820254,1175,1,35.4517,139.636,-600.712,0,0,4.29394,0.00984597,382.25,911.63,-3.5
1.72604e+09,-0.411987,-0.125122,-9.84802,-0.0120375,-0.00841559,0.00820254,3223,1,35.4517,139.636,-600.724,0,0,4.30247,0.0102721,382.25,911.63,-3.5
1.72604e+09,-0.418091,-0.0732422,-9.82361,-0.0111853,-0.0102265,0.00798948,1175,1,35.4517,139.636,-600.724,0,0,4.30247,0.0102721,382.46,911.62,-3.5
1.72604e+09,-0.360107,-0.0274658,-9.73816,-0.0100135,-0.0107592,0.0092678,1175,1,35.4517,139.636,-600.742,0,0,4.31955,0.00803502,382.46,911.62,-3.5
1.72604e+09,-0.427246,-0.0549316,-9.7168,-0.00756338,-0.0115049,0.0108657,1175,1,35.4517,139.636,-600.774,0,0,4.32445,0.00806506,382.68,911.61,-3.4
1.72604e+09,-0.378418,0,-9.76868,-0.00809601,-0.0125701,0.00958738,1175,1,35.4517,139.636,-600.783,0,0,4.33014,0.00785201,382.68,911.61,-3.4
1.72604e+09,-0.372314,0.119019,-9.69238,-0.00980043,-0.0125701,0.00884169,3223,1,35.4517,139.636,-600.793,0,0,4.34437,0.00913032,382.68,911.61,-3.4
1.72604e+09,-0.415039,-0.00915527,-9.71069,-0.0127832,-0.0134223,0.00990696,1175,1,35.4517,139.636,-600.793,0,0,4.34437,0.00913032,382.89,911.6,-3.4
1.72604e+09,-0.473022,-0.0946045,-9.59778,-0.0138484,-0.0144876,0.00862864,1175,1,35.4517,139.636,-600.814,0,0,4.35859,0.0094499,382.89,911.6,-3.4
1.72604e+09,-0.424194,0.00915527,-9.59167,-0.0170442,-0.0133158,0.00639159,1175,1,35.4517,139.636,-600.857,0,0,4.36628,0.00874762,383.11,911.58,-3.4
1.72604e+09,-0.430298,-0.0671387,-9.47571,-0.0168312,-0.0154463,0.0076699,1175,1,35.4517,139.636,-600.868,0,0,4.37482,0.00981288,383.11,911.58,-3.4
1.72604e+09,-0.479126,-0.0335693,-9.41467,-0.0151268,-0.0136354,0.00756338,3223,1,35.4517,139.636,-600.878,0,0,4.38335,0.00853456,383.11,911.58,-3.4
1.72604e+09,-0.393677,-0.00610352,-9.4635,-0.0142745,-0.0123571,0.0076699,1175,1,35.4517,139.636,-600.878,0,0,4.38335,0.00853456,383.32,911.57,-3.3
1.72604e+09,-0.396729,0.0427246,-9.55811,-0.01012,-0.00809601,0.00969391,1175,1,35.4517,139.636,-600.895,0,0,4.40326,0.00757583,383.32,911.57,-3.3
1.72604e+09,-0.460815,0.0183105,-9.66187,-0.00671117,-0.00660464,0.012144,1175,1,35.4517,139.636,-600.696,0,0,4.3977,0.00712041,383.54,911.56,-3.3
1.72604e+09,-0.387573,0.0488281,-9.79309,-0.00351537,-0.0052198,0.0138484,1175,1,35.4517,139.636,-600.705,0,0,4.40621,0.00722694,383.54,911.56,-3.3
1.72604e+09,-0.354004,0.0671387,-9.90601,-0.00255663,-0.00617853,0.0150202,3223,1,35.4517,139.636,-600.715,0,0,4.41471,0.00925094,383.54,911.56,-3.3
1.72604e+09,-0.454712,0.0823975,-9.95483,-0.00500674,-0.00671117,0.016192,1175,1,35.4517,139.636,-600.715,0,0,4.41471,0.00925094,383.75,911.55,-3.2
1.72604e+09,-0.317383,0.0610352,-10.0647,-0.00809601,-0.00841559,0.0165116,1175,1,35.4517,139.636,-600.745,0,0,4.44023,0.0134055,383.75,911.55,-3.2
1.72604e+09,-0.338745,0.0640869,-10.0891,-0.0132093,-0.0100135,0.016192,1175,1,35.4517,139.636,-600.609,0,0,4.45098,0.0143174,383.97,911.54,-3.2
1.72604e+09,-0.43335,0.0549316,-10.0708,-0.0185356,-0.0112918,0.0164051,1175,1,35.4517,139.636,-600.627,0,0,4.46231,0.0154892,383.97,911.54,-3.2
1.72604e+09,-0.341797,-0.0152588,-10.0983,-0.0218379,-0.0147006,0.0155529,3223,1,35.4517,139.636,-600.644,0,0,4.47081,0.0158088,383.97,911.54,-3.2
1.72604e+09,-0.378418,-0.0732422,-9.94873,-0.0248207,-0.016192,0.0152333,1175,1,35.4517,139.636,-600.644,0,0,4.47081,0.0158088,384.19,911.53,-3.1
1.72604e+09,-0.402832,-0.10376,-9.92432,-0.0198139,-0.0172573,0.0156594,1175,1,35.4517,139.636,-600.68,0,0,4.48781,0.0157023,384.19,911.53,-3.1
1.72604e+09,-0.421143,-0.192261,-9.79004,-0.0133158,-0.0205596,0.0155529,1175,1,35.4517,139.636,-600.582,0,0,4.50124,0.0146551,384.42,911.52,-3.1
1.72604e+09,-0.436401,-0.20752,-9.6283,-0.00916127,-0.0223706,0.0138484,5271,1,35.4517,139.636,-600.6,0,0,4.51257,0.0143356,384.42,911.52,-3.1
1.72604e+09,-0.378418,0.012207,-9.64355,-0.0102265,-0.020027,0.0116114,3223,1,35.4517,139.636,-600.617,0,0,4.51824,0.0147617,384.42,911.52,-3.1
1.72604e+09,-0.363159,-0.0854492,-9.59473,-0.00990696,-0.0216249,0.011931,1175,1,35.4517,139.636,-600.617,0,0,4.51824,0.0147617,384.64,911.5,-3.1
1.72604e+09,-0.363159,-0.0793457,-9.729,-0.0118244,-0.0196009,0.00958738,1175,1,35.4517,139.636,-600.645,0,0,4.53808,0.0129507,384.64,911.5,-3.1
1.72604e+09,-0.317383,-0.134277,-9.78699,-0.0152333,-0.022051,0.00617853,1175,1,35.4517,139.636,-600.577,0,0,4.55387,0.0105731,384.86,911.49,-3.1
1.72604e+09,-0.280762,-0.0488281,-9.77173,-0.0174703,-0.0232228,0.00394148,1175,1,35.4517,139.636,-600.59,0,0,4.56239,0.0108927,384.86,911.49,-3.1
1.72604e+09,-0.274658,-0.134277,-9.79919,-0.0160855,-0.0236489,0.000532632,3223,1,35.4517,139.636,-600.6,0,0,4.5709,0.00854907,384.86,911.49,-3.1
1.72604e+09,-0.231934,0.00915527,-9.75342,-0.0143811,-0.028123,-0.00170442,1175,1,35.4517,139.636,-600.6,0,0,4.5709,0.00854907,385.09,911.48,-3
1.72604e+09,-0.216675,0.106812,-9.6283,-0.0107592,-0.0292948,-0.000426106,1175,1,35.4517,139.636,-600.606,0,0,4.59643,0.00290317,385.09,911.48,-3
1.72604e+09,-0.222778,0.088501,-9.69543,-0.00703075,-0.0291882,0.00117179,1175,1,35.4517,139.636,-600.561,0,0,4.60716,-0.00059014,385.31,911.47,-3
1.72604e+09,-0.149536,0.192261,-9.54285,-0.00170442,-0.0297209,0.00372843,1175,1,35.4517,139.636,-600.558,0,0,4.61284,-0.0028272,385.31,911.47,-3
1.72604e+09,-0.0732422,0.308228,-9.74121,0.00852212,-0.0288687,0.00607201,3223,1,35.4517,139.636,-600.556,0,0,4.61568,-0.00154888,385.31,911.47,-3
1.72604e+09,-0.106812,0.274658,-9.63135,0.0152333,-0.0297209,0.0102265,1175,1,35.4517,139.636,-600.556,0,0,4.61568,-0.00154888,385.54,911.46,-3
1.72604e+09,-0.0793457,0.357056,-9.55505,0.0169377,-0.0275903,0.0145941,1175,1,35.4517,139.636,-600.562,0,0,4.62705,0.00260565,385.54,911.46,-3
1.72604e+09,-0.0854492,0.39978,-9.48792,0.0152333,-0.0237554,0.0187487,1175,1,35.4517,139.636,-600.546,0,0,4.63754,0.00490166,385.77,911.45,-2.9
1.72604e+09,-0.0701904,0.268555,-9.43298,0.0107592,-0.0207727,0.0207727,1175,1,35.4517,139.636,-600.557,0,0,4.64038,0.00905619,385.77,911.45,-2.9
1.72604e+09,0.012207,0.119019,-9.47266,0.00308927,-0.016192,0.0217314,3223,1,35.4517,139.636,-600.572,0,0,4.64607,0.0134238,385.77,911.45,-2.9
1.72604e+09,0,0.00915527,-9.58252,-0.00500674,-0.0107592,0.0208792,1175,1,35.4517,139.636,-600.572,0,0,4.64607,0.0134238,386,911.44,-2.9
1.72604e+09,0.0701904,-0.219727,-9.8114,-0.00916127,-0.0092678,0.0197074,1175,1,35.4517,139.636,-600.617,0,0,4.65744,0.0196023,386,911.44,-2.9
1.72604e+09,0.131226,-0.421143,-9.88464,-0.0113983,-0.0092678,0.0172573,1175,1,35.4517,139.636,-600.622,0,0,4.67029,0.0205234,386.23,911.43,-2.8
1.72604e+09,0.0732422,-0.454712,-9.85413,-0.01012,-0.00756338,0.0153398,1175,1,35.4517,139.636,-600.646,0,0,4.67598,0.0196712,386.23,911.43,-2.8
1.72604e+09,0.0579834,-0.500488,-9.70154,-0.00532632,-0.00884169,0.0118244,3223,1,35.4517,139.636,-600.667,0,0,4.68452,0.0184994,386.23,911.43,-2.8
1.72604e+09,0.0579834,-0.38147,-9.67712,-0.00170442,-0.00596548,0.0100135,1175,1,35.4517,139.636,-600.667,0,0,4.68452,0.0184994,386.46,911.42,-2.8
1.72604e+09,0.106812,-0.161743,-9.77173,-0.000213053,-0.00500674,0.0076699,1175,1,35.4517,139.636,-600.699,0,0,4.6959,0.0141318,386.46,911.42,-2.8
1.72604e+09,0.112915,-0.0915527,-9.82971,-0.000213053,-0.00468716,0.00820254,1175,1,35.4517,139.636,-600.714,0,0,4.7024,0.0106077,386.69,911.41,-2.7
1.72604e+09,0.109863,0.0396729,-9.86328,-0.00777643,-0.00340885,0.00617853,1175,1,35.4517,139.636,-600.724,0,0,4.70809,0.00879676,386.69,911.41,-2.7
1.72604e+09,0.119019,-0.0152588,-9.85413,-0.015979,-0.00479369,0.00468716,3223,1,35.4517,139.636,-600.731,0,0,4.71094,0.00645318,386.69,911.41,-2.7
1.72604e+09,0.0762939,0.177002,-9.75952,-0.0256729,-0.00372843,0.00436758,1175,1,35.4517,139.636,-600.731,0,0,4.71094,0.00645318,386.92,911.4,-2.7
1.72604e+09,0.10376,-0.0183105,-9.67407,-0.0302535,-0.00394148,0.00436758,1175,1,35.4517,139.636,-600.743,0,0,4.71664,0.00496181,386.92,911.4,-2.7
1.72604e+09,0.0610352,-0.0762939,-9.5459,-0.034195,-0.000745685,0.00276969,1175,1,35.4517,139.636,-600.764,0,0,4.72227,0.00348463,387.15,911.39,-2.7
1.72604e+09,0.0671387,-0.00305176,-9.55505,-0.0351537,0,0.00106526,1175,1,35.4517,139.636,-600.768,0,0,4.72512,0.00316505,387.15,911.39,-2.7
1.72604e+09,0.100708,-0.0610352,-9.61914,-0.0346211,0.000319579,0.000745685,3223,1,35.4517,139.636,-600.771,0,0,4.73082,0.00316505,387.15,911.39,-2.7
1.72604e+09,0.0579834,0.00305176,-9.49402,-0.0311057,0.00330232,0.00117179,1175,1,35.4517,139.636,-600.771,0,0,4.73082,0.00316505,387.38,911.38,-2.7
1.72604e+09,0.0793457,0.088501,-9.45129,-0.0267381,0.00468716,0.000852212,1175,1,35.4517,139.636,-600.771,0,0,4.73082,-0.000137272,387.38,911.38,-2.7
1.72604e+09,0.00610352,0.088501,-9.40857,-0.0239684,0.00585895,0.000852212,1175,1,35.4517,139.637,-600.819,0,0,4.74429,-0.000400774,387.61,911.36,-2.7
1.72604e+09,0.00305176,0.204468,-9.3689,-0.0221575,0.0100135,0.00117179,1175,1,35.4517,139.637,-600.819,0,0,4.74714,2.53315e-05,387.61,911.36,-2.7
1.72604e+09,0.0244141,0.234985,-9.38721,-0.0185356,0.012144,0.00245011,3223,1,35.4517,139.637,-600.818,0,0,4.74714,-0.000294248,387.61,911.36,-2.7
1.72604e+09,0.0274658,0.271606,-9.4635,-0.0153398,0.0126766,0.00447411,1175,1,35.4517,139.637,-600.818,0,0,4.74714,-0.000294248,387.84,911.35,-2.7
1.72604e+09,0.0335693,0.231934,-9.47876,-0.012144,0.014168,0.00692422,1175,1,35.4517,139.637,-600.818,0,0,4.75284,2.53315e-05,387.84,911.35,-2.7
1.72604e+09,0.00305176,0.289917,-9.4635,-0.0102265,0.0160855,0.00628506,1175,1,35.4517,139.637,-600.899,0,0,4.75996,0.00140211,388.07,911.34,-2.7
1.72604e+09,0.0152588,0.183105,-9.41162,-0.0076699,0.0178964,0.00788296,1175,1,35.4517,139.637,-600.903,0,0,4.76281,0.00342611,388.07,911.34,-2.7
1.72604e+09,0,0.149536,-9.53064,-0.00660464,0.0213053,0.00777643,3223,1,35.4517,139.637,-600.91,0,0,4.76566,0.00587622,388.07,911.34,-2.7
1.72604e+09,0.0427246,0.149536,-9.79614,-0.00468716,0.0251402,0.00809601,1175,1,35.4517,139.637,-600.91,0,0,4.76566,0.00587622,388.31,911.33,-2.7
1.72604e+09,0.0549316,0.0518799,-9.86938,-0.00276969,0.0246076,0.00777643,1175,1,35.4517,139.637,-600.926,0,0,4.76851,0.00683496,388.31,911.33,-2.7
1.72604e+09,0.0305176,0.134277,-10.0342,-0.00255663,0.0258859,0.0072438,1175,1,35.4517,139.637,-601.023,0,0,4.77221,0.00684096,388.54,911.32,-2.6
1.72604e+09,0.0671387,-0.00915527,-10.1837,-0.00340885,0.0231162,0.00628506,1175,1,35.4517,139.637,-601.031,0,0,4.77506,0.00716054,388.54,911.32,-2.6
1.72604e+09,0.0793457,-0.137329,-10.2783,-0.00532632,0.0204531,0.0036219,3223,1,35.4517,139.637,-601.038,0,0,4.78077,0.00684096,388.54,911.32,-2.6
1.72604e+09,0.0274658,-0.0183105,-10.2875,-0.00830906,0.0165116,0.000532632,1175,1,35.4517,139.637,-601.038,0,0,4.78077,0.00684096,388.77,911.31,-2.6
1.72604e+09,0.0335693,-0.17395,-10.1563,-0.00532632,0.0116114,0.000639159,1175,1,35.4517,139.637,-601.051,0,0,4.78932,0.00534959,388.77,911.31,-2.6
1.72604e+09,0.0305176,-0.0457764,-10.1898,-0.00106526,0.00916127,-0.00330232,1175,1,35.4517,139.637,-601.117,0,0,4.78967,0.00276712,389.01,911.3,-2.6
1.72604e+09,0.0427246,0.012207,-10.2753,0.00298274,0.00543285,-0.00106526,5271,1,35.4517,139.637,-601.117,0,0,4.79253,-0.000322144,389.01,911.3,-2.6
1.72604e+09,0,0.112915,-10.318,0.00937433,0.000852212,0.000106526,3223,1,35.4517,139.637,-601.117,0,0,4.79538,-0.000215617,389.01,911.3,-2.6
1.72604e+09,-0.0152588,0.189209,-10.2631,0.0164051,-0.00639159,0.00372843,1175,1,35.4517,139.637,-601.117,0,0,4.79538,-0.000215617,389.24,911.29,-2.6
1.72604e+09,-0.0213623,0.344849,-10.1471,0.0216249,-0.0107592,0.00639159,1175,1,35.4517,139.637,-601.112,0,0,4.80108,-0.00192004,389.24,911.29,-2.6
1.72604e+09,-0.0335693,0.375366,-10.1135,0.026099,-0.0164051,0.0107592,1175,1,35.4517,139.637,-601.164,0,0,4.80105,-0.000680531,389.47,911.28,-2.6
1.72604e+09,-0.00610352,0.442505,-9.96399,0.024075,-0.0198139,0.0150202,1175,1,35.4517,139.637,-601.167,0,0,4.8039,0.00294137,389.47,911.28,-2.6
1.72604e+09,-0.0488281,0.38147,-9.85107,0.0170442,-0.0210922,0.0189617,3223,1,35.4517,139.637,-601.173,0,0,4.80675,0.00560453,389.47,911.28,-2.6
1.72604e+09,-0.106812,0.271606,-9.78394,0.00852212,-0.0204531,0.0208792,1175,1,35.4517,139.637,-601.173,0,0,4.80675,0.00560453,389.71,911.27,-2.5
1.72604e+09,-0.0610352,0.0793457,-9.71069,-0.00447411,-0.0190682,0.0209857,1175,1,35.4517,139.637,-601.206,0,0,4.80675,0.0142332,389.71,911.27,-2.5
1.72604e+09,-0.0793457,-0.0579834,-9.63745,-0.0117179,-0.0174703,0.0204531,1175,1,35.4517,139.637,-601.271,0,0,4.80071,0.0182312,389.94,911.26,-2.5
1.72604e+09,-0.0976563,-0.320435,-9.6405,-0.0160855,-0.0162985,0.0204531,1175,1,35.4517,139.637,-601.294,0,0,4.80071,0.0201487,389.94,911.26,-2.5
1.72604e+09,-0.0396729,-0.45166,-9.6344,-0.0137419,-0.0162985,0.018216,3223,1,35.4517,139.637,-601.316,0,0,4.80642,0.0202552,389.94,911.26,-2.5
1.72604e+09,0.00915527,-0.524902,-9.75647,-0.00862864,-0.0151268,0.0165116,1175,1,35.4517,139.637,-601.316,0,0,4.80642,0.0202552,390.18,911.25,-2.4
1.72604e+09,-0.0640869,-0.448608,-9.59167,-0.00607201,-0.0142745,0.0124636,1175,1,35.4517,139.637,-601.361,0,0,4.81212,0.0197226,390.18,911.25,-2.4
1.72604e+09,-0.0793457,-0.338745,-9.66797,-0.00511327,-0.0140615,0.0104396,1175,1,35.4517,139.637,-601.404,0,0,4.81457,0.0175152,390.41,911.24,-2.4
1.72604e+09,0,-0.265503,-9.48181,-0.00383495,-0.0112918,0.00756338,1175,1,35.4517,139.637,-601.423,0,0,4.81457,0.0158108,390.41,911.24,-2.4
1.72604e+09,-0.0579834,-0.192261,-9.52454,-0.00213053,-0.00745685,0.00649811,3223,1,35.4517,139.637,-601.436,0,0,4.81742,0.0117627,390.41,911.24,-2.4
1.72604e+09,-0.0213623,-0.00915527,-9.552,-0.00426106,-0.00415453,0.00660464,1175,1,35.4517,139.637,-601.436,0,0,4.81742,0.0117627,390.65,911.24,-2.3
1.72604e+09,0.0335693,0.0976563,-9.68628,-0.00617853,-0.000745685,0.00649811,1175,1,35.4517,139.637,-601.451,0,0,4.82598,0.00686253,390.65,911.24,-2.3
1.72604e+09,-0.0640869,0.204468,-9.84802,-0.00862864,0.00308927,0.00703075,1175,1,35.4517,139.637,-601.465,0,0,4.83114,0.00580695,390.88,911.23,-2.3
1.72604e+09,-0.0213623,0.228882,-9.96094,-0.0112918,0.00170442,0.00703075,1175,1,35.4517,139.637,-601.472,0,0,4.83114,0.00591348,390.88,911.23,-2.3
1.72604e+09,0.128174,0.186157,-9.99451,-0.0147006,0.00191748,0.00862864,3223,1,35.4517,139.637,-601.478,0,0,4.84255,0.00580695,390.88,911.23,-2.3
1.72604e+09,-0.00915527,0.280762,-10.08,-0.0173638,0.00255663,0.00830906,1175,1,35.4517,139.637,-601.478,0,0,4.84255,0.00580695,391.12,911.22,-2.3
1.72604e+09,0.0183105,0.0579834,-10.0037,-0.0190682,-0.000745685,0.00916127,1175,1,35.4517,139.637,-601.493,0,0,4.84825,0.00633958,391.12,911.22,-2.3
1.72604e+09,0.0640869,0.158691,-10.0098,-0.0229032,-0.000319579,0.00820254,1175,1,35.4517,139.637,-601.517,0,0,4.85609,0.00795826,391.36,911.21,-2.3
1.72604e+09,-0.0183105,0.0732422,-9.9762,-0.0245011,-0.00330232,0.00820254,1175,1,35.4517,139.637,-601.525,0,0,4.85323,0.00763868,391.36,911.21,-2.3
1.72604e+09,0.0823975,0.0213623,-9.88464,-0.0201335,-0.00585895,0.00948085,3223,1,35.4517,139.637,-601.535,0,0,4.85609,0.00849089,391.36,911.21,-2.3
1.72604e+09,-0.0549316,0.0823975,-9.76563,-0.0142745,-0.00703075,0.0110788,1175,1,35.4517,139.637,-601.535,0,0,4.85609,0.00849089,391.59,911.2,-2.2
1.72604e+09,0.00305176,-0.140381,-9.83887,-0.00383495,-0.00735032,0.0117179,1175,1,35.4517,139.637,-601.552,0,0,4.86179,0.00753216,391.59,911.2,-2.2
1.72604e+09,0.0152588,0.0793457,-9.61609,0.0036219,-0.00948085,0.0125701,1175,1,35.4517,139.637,-601.574,0,0,4.86654,0.0088276,391.83,911.19,-2.2
1.72604e+09,-0.0183105,0.0549316,-9.51233,0.0113983,-0.00990696,0.0150202,1175,1,35.4517,139.637,-601.586,0,0,4.86939,0.0104255,391.83,911.19,-2.2
1.72604e+09,-0.0671387,0.15564,-9.37195,0.0164051,-0.0100135,0.0154463,3223,1,35.4517,139.637,-601.598,0,0,4.86939,0.0110647,391.83,911.19,-2.2
1.72604e+09,-0.137329,0.231934,-9.17053,0.0145941,-0.00607201,0.0144876,1175,1,35.4517,139.637,-601.598,0,0,4.86939,0.0110647,392.07,911.18,-2.1
1.72604e+09,-0.00915527,0.222778,-9.30481,0.0105461,-0.00234358,0.0151268,1175,1,35.4517,139.637,-601.632,0,0,4.87509,0.014367,392.07,911.18,-2.1
1.72604e+09,-0.0549316,0.167847,-9.33533,0.00575243,-0.00127832,0.0143811,1175,1,35.4517,139.637,-601.646,0,0,4.87128,0.0147912,392.31,911.18,-2.1
1.72604e+09,-0.00305176,-0.00915527,-9.48792,0.0015979,0.0015979,0.0151268,1175,1,35.4517,139.637,-601.662,0,0,4.87983,0.0138324,392.31,911.18,-2.1
1.72604e+09,0,0.0579834,-9.39636,0.00191748,0.00170442,0.0144876,3223,1,35.4517,139.637,-601.678,0,0,4.88553,0.0144716,392.31,911.18,-2.1
1.72604e+09,0.0366211,-0.216675,-9.50012,0.00639159,0.00372843,0.0135289,1175,1,35.4517,139.637,-601.678,0,0,4.88553,0.0144716,392.55,911.17,-2.1
1.72604e+09,0.00610352,-0.268555,-9.51233,0.0105461,0.00703075,0.0107592,1175,1,35.4517,139.637,-601.71,0,0,4.88838,0.0144716,392.55,911.17,-2.1
1.72604e+09,-0.112915,-0.302124,-9.46045,0.0147006,0.00852212,0.00735032,1175,1,35.4517,139.637,-601.731,0,0,4.89019,0.0138402,392.79,911.16,-2.1
1.72604e+09,-0.0244141,-0.161743,-9.64355,0.0127832,0.0102265,0.00372843,1175,1,35.4517,139.637,-601.746,0,0,4.89019,0.0128815,392.79,911.16,-2.1
1.72604e+09,0,-0.149536,-9.93347,0.00649811,0.00894822,0.000639159,3223,1,35.4517,139.637,-601.757,0,0,4.89304,0.0101118,392.79,911.16,-2.1
1.72604e+09,0.0671387,-0.0610352,-10.083,-0.00692422,0.00511327,-0.00372843,1175,1,35.4517,139.637,-601.757,0,0,4.89304,0.0101118,393.03,911.15,-2.1
1.72604e+09,0.0579834,-0.0335693,-9.9884,-0.0230097,0.00340885,-0.00862864,1175,1,35.4517,139.637,-601.764,0,0,4.90444,0.00308107,393.03,911.15,-2.1
1.72604e+09,0.088501,-0.189209,-10.1074,-0.0265251,0.000745685,-0.00894822,1175,1,35.4516,139.637,-601.762,0,0,4.91768,-8.74102e-06,393.27,911.14,-2.1
1.72604e+09,0.0213623,-0.140381,-9.96094,-0.0217314,0.0015979,-0.0108657,3223,1,35.4516,139.637,-601.757,0,0,4.92053,-0.00437633,393.27,911.14,-2.1
1.72604e+09,0.0610352,-0.115967,-10.1074,-0.0107592,0.00298274,-0.00916127,1175,1,35.4516,139.637,-601.746,0,0,4.91768,-0.00927654,393.27,911.14,-2.1
1.72604e+09,0.0549316,0.0457764,-10.0708,0.000532632,0.00372843,-0.0076699,1175,1,35.4516,139.637,-601.746,0,0,4.91768,-0.00927654,393.51,911.13,-2.1
1.72604e+09,-0.0396729,0.228882,-10.0281,0.00873517,0.00575243,-0.00298274,1175,1,35.4516,139.637,-601.725,0,0,4.91511,-0.0115068,393.51,911.13,-2.1
1.72604e+09,0.0671387,0.350952,-10.0189,0.0151268,0.00830906,-0.000639159,1175,1,35.4516,139.637,-601.715,0,0,4.91795,-0.00980238,393.75,911.13,-2.1
1.72604e+09,0.0610352,0.466919,-10.1044,0.0177899,0.0106526,0.002024,5271,1,35.4516,139.637,-601.705,0,0,4.92365,-0.00831101,393.75,911.13,-2.1
1.72604e+09,-0.0549316,0.445557,-10.3516,0.0152333,0.0115049,0.00596548,3223,1,35.4516,139.637,-601.701,0,0,4.92935,-0.00362385,393.75,911.13,-2.1
1.72604e+09,0.125122,0.509644,-10.4828,0.0076699,0.00607201,0.00703075,1175,1,35.4516,139.637,-601.701,0,0,4.92935,-0.00362385,393.99,911.12,-2.1
1.72604e+09,0.0549316,0.390625,-10.2478,-0.00351537,-0.00181095,0.00948085,1175,1,35.4516,139.637,-601.704,0,0,4.93505,0.0013829,393.99,911.12,-2.1
1.72604e+09,0.012207,0.0640869,-10.2448,-0.0165116,-0.00543285,0.00884169,1175,1,35.4516,139.637,-601.709,0,0,4.93642,0.00532651,394.23,911.11,-2
1.72604e+09,0.128174,-0.0549316,-9.93652,-0.024288,-0.0132093,0.00703075,1175,1,35.4516,139.637,-601.717,0,0,4.94496,0.00639177,394.23,911.11,-2
1.72604e+09,-0.0793457,-0.405884,-9.67712,-0.0253533,-0.0100135,0.00543285,3223,1,35.4516,139.637,-601.726,0,0,4.95066,0.00884188,394.23,911.11,-2
1.72604e+09,0.00915527,-0.457764,-9.74121,-0.0201335,-0.0140615,0.00255663,1175,1,35.4516,139.637,-601.726,0,0,4.95066,0.00884188,394.47,911.1,-2
1.72604e+09,-0.0244141,-0.454712,-9.18579,-0.0102265,-0.0144876,0.00149137,1175,1,35.4516,139.637,-601.741,0,0,4.94496,0.00639177,394.47,911.1,-2
1.72604e+09,-0.0488281,-0.402832,-9.38721,-0.000213053,-0.0103331,0.000532632,1175,1,35.4516,139.637,-601.743,0,0,4.94078,0.00479006,394.71,911.09,-2
1.72604e+09,-0.0274658,-0.164795,-9.23157,0.00117179,-0.00873517,-0.00181095,1175,1,35.4516,139.637,-601.745,0,0,4.94362,0.00191385,394.71,911.09,-2
1.72604e+09,0.00305176,0.0183105,-9.24988,-0.00106526,-0.00287621,-0.00308927,3223,1,35.4516,139.637,-601.745,0,0,4.94362,0.000848586,394.71,911.09,-2
1.72604e+09,-0.0823975,0.0274658,-9.17358,-0.00788296,0.00383495,-0.00553938,1175,1,35.4516,139.637,-601.745,0,0,4.94362,0.000848586,394.96,911.08,-2
1.72604e+09,-0.146484,0.0671387,-9.19189,-0.0148072,0.00468716,-0.00681769,1175,1,35.4516,139.637,-601.74,0,0,4.94078,-0.00245373,394.96,911.08,-2
1.72604e+09,0.088501,0.106812,-9.22241,-0.0173638,0.014168,-0.00905475,1175,1,35.4516,139.637,-601.727,0,0,4.93954,-0.00374017,395.2,911.07,-2.1
1.72604e+09,-0.0396729,0.088501,-9.54895,-0.0176834,0.0196009,-0.00990696,1175,1,35.4516,139.637,-601.72,0,0,4.94239,-0.00619028,395.2,911.07,-2.1
1.72604e+09,0.00610352,0.146484,-9.66187,-0.0131028,0.0221575,-0.0115049,3223,1,35.4516,139.637,-601.712,0,0,4.94808,-0.0074686,395.2,911.07,-2.1
1.72604e+09,-0.0701904,0.134277,-9.97314,-0.00468716,0.0203466,-0.0106526,1175,1,35.4516,139.637,-601.712,0,0,4.94808,-0.0074686,395.44,911.06,-2.1
1.72604e+09,-0.0396729,0.228882,-9.93042,-0.00490022,0.015979,-0.0126766,1175,1,35.4516,139.637,-601.688,0,0,4.95947,-0.0105579,395.44,911.06,-2.1
1.72604e+09,0.00915527,0.390625,-9.63745,-0.0102265,0.0104396,-0.013955,1175,1,35.4516,139.637,-601.689,0,0,4.96111,-0.0121326,395.69,911.05,-2.1
1.72604e+09,-0.0823975,0.22583,-9.59778,-0.0164051,0.0109722,-0.011931,1175,1,35.4516,139.637,-601.676,0,0,4.9668,-0.0112804,395.69,911.05,-2.1
1.72604e+09,-0.0701904,0.20752,-9.8053,-0.0233293,0.00894822,-0.0122505,3223,1,35.4516,139.637,-601.662,0,0,4.97534,-0.0133044,395.69,911.05,-2.1
1.72604e+09,0.0152588,0.0335693,-10.2997,-0.0272708,0.00575243,-0.0123571,1175,1,35.4516,139.637,-601.662,0,0,4.97534,-0.0133044,395.93,911.04,-2.2
1.72604e+09,0.0305176,0.115967,-10.5072,-0.0295078,-0.00458064,-0.011931,1175,1,35.4516,139.637,-601.633,0,0,4.97249,-0.0125587,395.93,911.04,-2.2
1.72604e+09,0.0915527,0.0488281,-10.4828,-0.0316384,-0.0162985,-0.0102265,1175,1,35.4516,139.637,-601.668,0,0,4.97123,-0.0128076,396.17,911.03,-2.2
1.72604e+09,0.0213623,-0.112915,-10.3088,-0.0217314,-0.0221575,-0.0076699,1175,1,35.4516,139.637,-601.653,0,0,4.97976,-0.0129141,396.17,911.03,-2.2
1.72604e+09,0.0518799,-0.0732422,-10.257,-0.00511327,-0.0267381,-0.00490022,3223,1,35.4516,139.637,-601.64,0,0,4.98545,-0.012488,396.17,911.03,-2.2
1.72604e+09,0.0610352,-0.00915527,-10.2509,0.00660464,-0.0258859,-0.00287621,1175,1,35.4516,139.637,-601.64,0,0,4.98545,-0.012488,396.42,911.03,-2.2
1.72604e+09,0.0549316,0.131226,-10.3638,0.015979,-0.026312,-0.00117179,1175,1,35.4516,139.637,-601.621,0,0,4.9883,-0.00822692,396.42,911.03,-2.2
1.72604e+09,-0.0335693,0.350952,-9.99146,0.015979,-0.0267381,-0.00276969,1175,1,35.4516,139.637,-601.648,0,0,4.97849,-0.00540918,396.66,911.02,-2.2
1.72604e+09,-0.106812,0.286865,-9.78088,0.00948085,-0.0223706,-0.00330232,1175,1,35.4516,139.637,-601.644,0,0,4.97849,-0.00338518,396.66,911.02,-2.2
1.72604e+09,-0.0854492,0.314331,-9.41467,0.000852212,-0.0190682,-0.00319579,3223,1,35.4516,139.637,-601.642,0,0,4.98418,-0.00168076,396.66,911.02,-2.2
1.72604e+09,-0.0183105,0.186157,-9.40857,-0.00255663,-0.0127832,-0.00447411,1175,1,35.4516,139.637,-601.642,0,0,4.98418,-0.00168076,396.91,911.01,-2.2
1.72604e+09,0.0213623,0.0793457,-9.50012,-0.00436758,-0.00415453,-0.00660464,1175,1,35.4516,139.637,-601.634,0,0,4.98703,-0.00381128,396.91,911.01,-2.2
1.72604e+09,-0.0305176,-0.0854492,-9.43604,0.00351537,-0.000532632,-0.00777643,1175,1,35.4516,139.637,-601.675,0,0,4.99141,-0.00363978,397.15,911,-2.2
1.72604e+09,-0.0549316,-0.100708,-9.50623,0.0110788,0.00671117,-0.00873517,1175,1,35.4516,139.637,-601.67,0,0,4.99141,-0.00491809,397.15,911,-2.2
1.72604e+09,0.0274658,0.00915527,-9.68323,0.0124636,0.00660464,-0.0102265,3223,1,35.4516,139.637,-601.662,0,0,4.99425,-0.00704862,397.15,911,-2.2
1.72604e+09,0.0427246,0.00610352,-9.93652,0.0110788,0.00756338,-0.0110788,1175,1,35.4516,139.637,-601.662,0,0,4.99425,-0.00704862,397.39,910.99,-2.3
1.72604e+09,0.088501,0.012207,-10.08,0.00511327,0.00234358,-0.0129962,1175,1,35.4516,139.637,-601.641,0,0,4.99994,-0.00917915,397.39,910.99,-2.3
1.72604e+09,0.0762939,0.0518799,-10.0861,-0.00468716,-0.004048,-0.0152333,1175,1,35.4516,139.637,-601.689,0,0,5.00164,-0.0105854,397.64,910.97,-2.3
1.72604e+09,0.161743,-0.0701904,-9.93042,-0.00884169,-0.01012,-0.0162985,3223,1,35.4516,139.637,-601.676,0,0,5.01585,-0.0114376,397.64,910.97,-2.3
1.72604e+09,0.0701904,-0.0274658,-9.75952,-0.0142745,-0.0108657,-0.0196009,1175,1,35.4516,139.637,-601.662,0,0,5.01301,-0.0133551,397.64,910.97,-2.3
1.72604e+09,0.0488281,-0.0396729,-9.82666,-0.0213053,-0.0103331,-0.0213053,1175,1,35.4516,139.637,-601.662,0,0,5.01301,-0.0133551,397.88,910.96,-2.4
1.72604e+09,0.128174,0.0183105,-9.83887,-0.0209857,-0.00745685,-0.022051,3223,1,35.4516,139.637,-601.407,0,0,5.0006,-0.0170256,397.88,910.96,-2.4
1.72604e+09,0.0732422,0.0579834,-9.93347,-0.0201335,-0.00862864,-0.0211988,1175,1,35.4516,139.637,-601.382,0,0,5.0006,-0.0203279,398.13,910.95,-2.4
1.72604e+09,-0.00915527,0,-9.43909,-0.0168312,-0.0106526,-0.0201335,1175,1,35.4516,139.637,-601.357,0,0,4.98926,-0.0220324,398.13,910.95,-2.4
1.72604e+09,0,0.0976563,-9.13391,-0.0129962,-0.00575243,-0.020027,3223,1,35.4516,139.637,-601.185,0,0,4.99579,-0.0230301,398.13,910.95,-2.4
1.72604e+09,0.0854492,0.115967,-9.3689,-0.0115049,-0.000426106,-0.0192813,1175,1,35.4516,139.637,-601.185,0,0,4.99579,-0.0230301,398.38,910.94,-2.4
1.72604e+09,0.0762939,0.247192,-9.4635,-0.0120375,0.00266316,-0.0186421,1175,1,35.4516,139.637,-601.137,0,0,4.99863,-0.0211126,398.38,910.94,-2.4
1.72604e+09,0.0976563,0.463867,-9.52759,-0.0211988,0.00255663,-0.0185356,1175,1,35.4516,139.637,-601.009,0,0,4.99911,-0.0211834,398.62,910.93,-2.5
1.72604e+09,0.0335693,0.448608,-9.17358,-0.0320645,0.00223706,-0.016192,5271,1,35.4516,139.637,-600.986,0,0,4.99627,-0.0204377,398.62,910.93,-2.5
1.72604e+09,-0.0640869,0.268555,-8.67615,-0.04048,0.00681769,-0.0149137,3223,1,35.4516,139.637,-600.964,0,0,4.99911,-0.0197985,398.62,910.93,-2.5
1.72604e+09,0.125122,0.0457764,-9.04541,-0.0452737,0.0125701,-0.0149137,1175,1,35.4516,139.637,-600.964,0,0,4.99911,-0.0197985,398.87,910.92,-2.5
1.72604e+09,0.109863,-0.210571,-9.49707,-0.0406931,0.0168312,-0.0166181,1175,1,35.4516,139.637,-600.924,0,0,5.01043,-0.0173484,398.87,910.92,-2.5
1.72604e+09,0.158691,-0.140381,-9.89075,-0.0307861,0.016192,-0.0169377,1175,1,35.4516,139.637,-600.838,0,0,5.00668,-0.0161911,399.12,910.91,-2.6
1.72604e+09,0.222778,-0.0366211,-10.0769,-0.0175769,0.0122505,-0.0167247,1175,1,35.4516,139.637,-600.819,0,0,5.00668,-0.0161911,399.12,910.91,-2.6
1.72604e+09,0.213623,0.100708,-10.2631,-0.00607201,0.00756338,-0.0165116,3223,1,35.4516,139.637,-600.8,0,0,5.01235,-0.0178955,399.12,910.91,-2.6
1.72604e+09,0.234985,0.259399,-10.2173,0.002024,0.00500674,-0.0155529,1175,1,35.4516,139.637,-600.8,0,0,5.01235,-0.0178955,399.36,910.89,-2.6
1.72604e+09,0.268555,0.454712,-10.3851,0.00788296,0.002024,-0.0154463,1175,1,35.4516,139.637,-600.759,0,0,5.02369,-0.018002,399.36,910.89,-2.6
1.72604e+09,0.308228,0.592041,-10.2051,0.00852212,-0.00415453,-0.0144876,1175,1,35.4516,139.637,-600.708,0,0,5.02693,-0.0178522,399.61,910.88,-2.7
1.72604e+09,0.183105,0.564575,-10.4126,0.00607201,-0.0036219,-0.014168,1175,1,35.4516,139.637,-600.688,0,0,5.02126,-0.0168934,399.61,910.88,-2.7
1.72604e+09,0.338745,0.6073,-10.7452,0.00660464,-0.00969391,-0.0120375,3223,1,35.4516,139.637,-600.669,0,0,5.01842,-0.0167869,399.61,910.88,-2.7
1.72604e+09,0.323486,0.393677,-10.6689,0.00873517,-0.0173638,-0.00958738,1175,1,35.4516,139.637,-600.669,0,0,5.01842,-0.0167869,399.85,910.87,-2.7
1.72604e+09,0.234985,0.305176,-10.6232,0.011931,-0.0249272,-0.0100135,1175,1,35.4516,139.637,-600.634,0,0,5.00707,-0.0155086,399.85,910.87,-2.7
1.72604e+09,0.253296,0.390625,-10.1532,0.0126766,-0.0325971,-0.0103331,1175,1,35.4516,139.637,-600.619,0,0,5.01875,-0.0133927,400.1,910.86,-2.7
1.72604e+09,0.216675,0.195313,-9.71375,0.00681769,-0.036432,-0.0105461,1175,1,35.4516,139.637,-600.606,0,0,5.01875,-0.0109426,400.1,910.86,-2.7
1.72604e+09,0.186157,0.146484,-9.53674,-0.000319579,-0.0331297,-0.0122505,3223,1,35.4516,139.637,-600.592,0,0,5.0159,-0.0113687,400.1,910.86,-2.7
1.72604e+09,0.10376,0.0488281,-9.17053,-0.0056459,-0.0316384,-0.0133158,1175,1,35.4516,139.637,-600.592,0,0,5.0159,-0.0113687,400.34,910.84,-2.8
1.72604e+09,0.363159,-0.250244,-9.32007,-0.0015979,-0.0269512,-0.0126766,1175,1,35.4516,139.637,-600.567,0,0,5.00169,-0.0119013,400.34,910.84,-2.8
1.72604e+09,0.216675,-0.195313,-9.61609,0.000745685,-0.022051,-0.0123571,1175,1,35.4516,139.637,-600.582,0,0,4.99238,-0.0135741,400.59,910.83,-2.8
1.72604e+09,0.210571,-0.210571,-9.68018,0.00532632,-0.0204531,-0.014168,1175,1,35.4516,139.637,-600.564,0,0,4.99238,-0.0146394,400.59,910.83,-2.8
1.72604e+09,0.302124,-0.146484,-9.42078,0.00639159,-0.0208792,-0.0167247,3223,1,35.4516,139.637,-600.548,0,0,4.98954,-0.0140002,400.59,910.83,-2.8
1.72604e+09,0.180054,-0.0244141,-9.54285,0.00490022,-0.0142745,-0.015979,1175,1,35.4516,139.637,-600.548,0,0,4.98954,-0.0140002,400.83,910.82,-2.8
1.72604e+09,0.186157,-0.00610352,-9.63745,-0.00127832,-0.0123571,-0.0160855,1175,1,35.4516,139.637,-600.513,0,0,4.98954,-0.0154916,400.83,910.82,-2.8
1.72604e+09,0.366211,0.115967,-9.7229,-0.00703075,-0.0133158,-0.0162985,1175,1,35.4516,139.637,-600.524,0,0,4.9936,-0.0180131,401.08,910.81,-2.9
1.72604e+09,0.308228,0.10376,-9.75952,-0.0113983,-0.0103331,-0.0153398,1175,1,35.4516,139.637,-600.503,0,0,4.99076,-0.0172675,401.08,910.81,-2.9
1.72604e+09,0.183105,-0.0457764,-9.66492,-0.0176834,-0.0131028,-0.0167247,3223,1,35.4516,139.637,-600.484,0,0,4.99076,-0.017374,401.08,910.81,-2.9
1.72604e+09,0.341797,0.17395,-9.5459,-0.0247141,-0.0122505,-0.018216,1175,1,35.4516,139.637,-600.484,0,0,4.99076,-0.017374,401.32,910.79,-2.9
1.72604e+09,0.292969,0.0854492,-9.6405,-0.0286556,-0.00980043,-0.0170442,1175,1,35.4516,139.637,-600.446,0,0,4.98791,-0.0166283,401.32,910.79,-2.9
1.72604e+09,0.198364,0.158691,-9.66187,-0.0295078,-0.00948085,-0.015979,1175,1,35.4516,139.637,-600.449,0,0,4.98527,-0.0179853,401.56,910.78,-2.9
1.72604e+09,0.305176,0.186157,-9.6405,-0.0269512,-0.00905475,-0.0124636,1175,1,35.4516,139.637,-600.426,0,0,4.98527,-0.0194767,401.56,910.78,-2.9
1.72604e+09,0.302124,0.20752,-9.60388,-0.0198139,-0.00788296,-0.0092678,3223,1,35.4516,139.637,-600.405,0,0,4.97957,-0.0183049,401.56,910.78,-2.9
1.72604e+09,0.210571,0.238037,-9.67712,-0.0118244,-0.00735032,-0.00585895,1175,1,35.4516,139.637,-600.405,0,0,4.97957,-0.0183049,401.81,910.77,-2.9
1.72604e+09,0.259399,0.27771,-9.70154,-0.00830906,-0.00639159,-0.00308927,1175,1,35.4516,139.637,-600.373,0,0,4.97672,-0.0137242,401.81,910.77,-2.9
1.72604e+09,0.350952,0.32959,-9.8114,-0.00713727,-0.00607201,-0.00106526,1175,1,35.4516,139.637,-600.397,0,0,4.97613,-0.0104834,402.05,910.75,-3
1.72604e+09,0.317383,0.317383,-9.86023,-0.00607201,-0.00777643,0.00117179,1175,1,35.4516,139.637,-600.389,0,0,4.97328,-0.00707456,402.05,910.75,-3
1.72604e+09,0.283813,0.253296,-9.87549,-0.00553938,-0.00788296,0.00245011,3223,1,35.4516,139.637,-600.384,0,0,4.97328,-0.00430487,402.05,910.75,-3
1.72604e+09,0.332642,0.241089,-9.88464,-0.00649811,-0.00969391,0.00223706,1175,1,35.4516,139.637,-600.384,0,0,4.97328,-0.00430487,402.29,910.74,-3
1.72604e+09,0.268555,0.177002,-9.77783,-0.0113983,-0.0117179,0.000639159,1175,1,35.4516,139.637,-600.384,0,0,4.97328,-4.38162e-05,402.29,910.74,-3
1.72604e+09,0.27771,0.137329,-9.68018,-0.0165116,-0.0116114,0.000106526,1175,1,35.4516,139.637,-600.454,0,0,4.96911,0.00132676,402.53,910.73,-3
1.72604e+09,0.241089,-0.0183105,-9.49707,-0.0157659,-0.0111853,-0.00138484,1175,1,35.4516,139.637,-600.455,0,0,4.96055,0.00111371,402.53,910.73,-3
1.72604e+09,0.164795,-0.088501,-9.23157,-0.0132093,-0.0076699,-0.00149137,3223,1,35.4516,139.637,-600.455,0,0,4.96055,-0.000484187,402.53,910.73,-3
1.72604e+09,0.280762,-0.119019,-9.25598,-0.00841559,-0.00447411,-0.00298274,1175,1,35.4516,139.637,-600.455,0,0,4.96055,-0.000484187,402.78,910.72,-3
1.72604e+09,0.22583,-0.0976563,-9.44824,-0.004048,0,-0.00394148,1175,1,35.4516,139.637,-600.449,0,0,4.96055,-0.00250819,402.78,910.72,-3
1.72604e+09,0.289917,-0.0305176,-9.42383,0.000106526,0.00149137,-0.0056459,1175,1,35.4516,139.637,-600.169,0,0,4.94133,-0.00306977,403.02,910.7,-3
1.72604e+09,0.286865,0.0762939,-9.59473,0.00223706,0.00266316,-0.00671117,1175,1,35.4516,139.637,-600.163,0,0,4.93849,-0.00456114,403.02,910.7,-3
1.72604e+09,0.250244,0.146484,-9.68323,-0.000319579,0.00458064,-0.00596548,3223,1,35.4516,139.637,-600.157,0,0,4.93565,-0.00551988,403.02,910.7,-3
1.72604e+09,0.283813,0.20752,-9.83276,-0.00543285,0.00383495,-0.00543285,1175,1,35.4516,139.637,-600.157,0,0,4.93565,-0.00551988,403.26,910.69,-3
1.72604e+09,0.314331,0.219727,-9.86938,-0.00905475,0.00106526,-0.00490022,1175,1,35.4516,139.637,-600.137,0,0,4.93565,-0.00828957,403.26,910.69,-3
1.72604e+09,0.305176,0.228882,-9.97009,-0.0137419,0.0015979,-0.00426106,1175,1,35.4516,139.637,-599.954,0,0,4.9301,-0.00783954,403.5,910.68,-3
1.72604e+09,0.286865,0.20752,-10.0586,-0.015979,-0.00213053,-0.00255663,5271,1,35.4516,139.637,-599.945,0,0,4.9301,-0.00730691,403.5,910.68,-3
1.72604e+09,0.283813,0.119019,-9.88159,-0.0169377,-0.00351537,-0.000532632,3223,1,35.4516,139.637,-599.938,0,0,4.9301,-0.00677427,403.5,910.68,-3
1.72604e+09,0.323486,0.109863,-9.99756,-0.0134223,-0.0052198,0.00106526,1175,1,35.4516,139.637,-599.938,0,0,4.9301,-0.00677427,403.74,910.67,-3
1.72604e+09,0.289917,0.0518799,-9.93958,-0.00809601,-0.00596548,0.00213053,1175,1,35.4516,139.637,-599.927,0,0,4.92726,-0.00443069,403.74,910.67,-3
1.72604e+09,0.286865,0.0457764,-9.9823,-0.00191748,-0.00830906,0.00308927,1175,1,35.4516,139.637,-599.821,0,0,4.92536,-0.0025885,403.98,910.65,-3
1.72604e+09,0.314331,0.0610352,-10.0494,0.00213053,-0.00969391,0.00426106,1175,1,35.4516,139.637,-599.819,0,0,4.92252,-0.000990605,403.98,910.65,-3
1.72604e+09,0.311279,0.0549316,-10.0983,0.00458064,-0.0131028,0.00330232,3223,1,35.4516,139.637,-599.82,0,0,4.91683,7.46592e-05,403.98,910.65,-3
1.72604e+09,0.241089,0.146484,-10.0006,0.00372843,-0.0145941,0.00245011,1175,1,35.4516,139.637,-599.82,0,0,4.91683,7.46592e-05,404.22,910.64,-3
1.72604e+09,0.338745,0.158691,-9.91516,0.00181095,-0.0178964,0.00308927,1175,1,35.4516,139.637,-599.825,0,0,4.91115,0.00220519,404.22,910.64,-3
1.72604e+09,0.32959,0.106812,-9.96094,-0.00319579,-0.0184291,0.00213053,1175,1,35.4516,139.637,-599.777,0,0,4.91738,0.00114943,404.46,910.63,-3
1.72604e+09,0.265503,0.125122,-9.86023,-0.00884169,-0.0191748,0.00127832,1175,1,35.4516,139.637,-599.777,0,0,4.91453,0.000297215,404.46,910.63,-3
1.72604e+09,0.289917,0.137329,-9.78088,-0.0106526,-0.0208792,-0.000213053,3223,1,35.4516,139.637,-599.778,0,0,4.91168,0.000936374,404.46,910.63,-3
1.72604e+09,0.259399,0.0305176,-9.56421,-0.0131028,-0.018216,0.000213053,1175,1,35.4516,139.637,-599.778,0,0,4.91168,0.000936374,404.7,910.62,-3
1.72604e+09,0.22583,0.0518799,-9.48181,-0.0129962,-0.0167247,-0.000319579,1175,1,35.4516,139.637,-599.776,0,0,4.89746,-0.000874575,404.7,910.62,-3
1.72604e+09,0.289917,-0.0549316,-9.50317,-0.00735032,-0.0134223,0.000745685,1175,1,35.4516,139.637,-599.77,0,0,4.90121,-0.00239159,404.94,910.6,-2.9
1.72604e+09,0.286865,-0.0305176,-9.47266,-0.00149137,-0.00980043,0.00149137,1175,1,35.4516,139.637,-599.767,0,0,4.89836,-0.00196548,404.94,910.6,-2.9
1.72604e+09,0.234985,0.143433,-9.4574,0.00245011,-0.00649811,0.000426106,3223,1,35.4516,139.637,-599.765,0,0,4.89266,-0.00249812,404.94,910.6,-2.9
1.72604e+09,0.323486,0.0640869,-9.37195,0.00639159,-0.00234358,0.00245011,1175,1,35.4516,139.637,-599.765,0,0,4.89266,-0.00249812,405.18,910.59,-2.9
1.72604e+09,0.311279,0.161743,-9.58862,0.00681769,0.00298274,0.00106526,1175,1,35.4516,139.637,-599.763,0,0,4.89266,-0.000687166,405.18,910.59,-2.9
1.72604e+09,0.292969,0.15564,-9.59167,0.00234358,0.00607201,0.000532632,1175,1,35.4516,139.637,-599.793,0,0,4.89612,-0.00172502,405.42,910.58,-3
1.72604e+09,0.305176,0.17395,-9.71375,-0.00511327,0.00777643,-0.000319579,1175,1,35.4516,139.637,-599.793,0,0,4.89612,0.000298986,405.42,910.58,-3
1.72604e+09,0.314331,0.0213623,-9.78088,-0.0112918,0.00788296,-0.00213053,3223,1,35.4516,139.637,-599.792,0,0,4.89898,-0.00108586,405.42,910.58,-3
1.72604e+09,0.27771,0.0183105,-9.80835,-0.0116114,0.00969391,-0.00436758,1175,1,35.4516,139.637,-599.792,0,0,4.89898,-0.00108586,405.66,910.57,-3
1.72604e+09,0.357056,-0.088501,-9.92126,-0.00639159,0.0056459,-0.00596548,1175,1,35.4516,139.637,-599.786,0,0,4.89612,-0.0024707,405.66,910.57,-3
1.72604e+09,0.38147,-0.119019,-9.89685,-0.00351537,0.00266316,-0.00809601,1175,1,35.4516,139.637,-599.806,0,0,4.90156,-0.00425977,405.89,910.55,-3
1.72604e+09,0.296021,0.0518799,-9.79309,-0.004048,0.00234358,-0.0102265,1175,1,35.4516,139.637,-599.798,0,0,4.8987,-0.00649682,405.89,910.55,-3
1.72604e+09,0.271606,0.0488281,-9.76257,-0.00181095,0.00127832,-0.00937433,3223,1,35.4516,139.637,-599.789,0,0,4.90156,-0.00809472,405.89,910.55,-3
1.72604e+09,0.326538,0.177002,-9.70154,-0.000958738,0.000639159,-0.00990696,1175,1,35.4516,139.637,-599.789,0,0,4.90156,-0.00809472,406.13,910.54,-3
1.72604e+09,0.305176,0.131226,-9.74121,0.000213053,0.002024,-0.00660464,1175,1,35.4516,139.637,-599.761,0,0,4.89013,-0.0123558,406.13,910.54,-3
1.72604e+09,0.259399,0.244141,-9.69543,0.000852212,0.00191748,-0.00543285,1175,1,35.4516,139.637,-599.815,0,0,4.89165,-0.011419,406.37,910.53,-3
1.72604e+09,0.286865,0.183105,-9.68323,0.00127832,0.00479369,-0.00276969,1175,1,35.4516,139.637,-599.801,0,0,4.8945,-0.0119516,406.37,910.53,-3
1.72604e+09,0.283813,0.231934,-9.66187,0.0036219,0.00809601,-0.00181095,3223,1,35.4516,139.637,-599.792,0,0,4.88879,-0.00864929,406.37,910.53,-3
1.72604e+09,0.244141,0.250244,-9.61609,0.00500674,0.00937433,0.000852212,1175,1,35.4516,139.637,-599.792,0,0,4.88879,-0.00864929,406.61,910.52,-3
1.72604e+09,0.259399,0.213623,-9.67712,0.00447411,0.0106526,0.00298274,1175,1,35.4516,139.637,-599.781,0,0,4.88021,-0.00481434,406.61,910.52,-3
1.72604e+09,0.231934,0.222778,-9.69543,0.00234358,0.0124636,0.00287621,1175,1,35.4516,139.637,-599.848,0,0,4.88353,-0.00376356,406.85,910.5,-3
1.72604e+09,0.253296,0.167847,-9.73511,-0.000532632,0.0113983,0.00458064,1175,1,35.4516,139.637,-599.846,0,0,4.88067,-0.0011004,406.85,910.5,-3
1.72604e+09,0.274658,0.0976563,-9.66187,-0.00191748,0.00777643,0.00479369,3223,1,35.4516,139.637,-599.847,0,0,4.87781,0.00103013,406.85,910.5,-3
1.72604e+09,0.292969,0.0427246,-9.66187,-0.0052198,0.00937433,0.00394148,1175,1,35.4516,139.637,-599.847,0,0,4.87781,0.00103013,407.08,910.49,-3
1.72604e+09,0.250244,0.00610352,-9.69238,-0.0076699,0.00916127,0.00330232,1175,1,35.4516,139.637,-599.853,0,0,4.87495,0.00262803,407.08,910.49,-3
1.72604e+09,0.268555,-0.0946045,-9.68018,-0.0105461,0.00830906,0.0015979,1175,1,35.4516,139.637,-599.899,0,0,4.87733,0.00289449,407.32,910.48,-3
1.72604e+09,0.268555,-0.170898,-9.68018,-0.0144876,0.00809601,-0.000319579,1175,1,35.4516,139.637,-599.901,0,0,4.8716,0.00204228,407.32,910.48,-3
1.72604e+09,0.231934,-0.167847,-9.77783,-0.0169377,0.00948085,-0.000213053,3223,1,35.4516,139.637,-599.903,0,0,4.86874,0.00140312,407.32,910.48,-3
1.72604e+09,0.250244,-0.149536,-9.72595,-0.0168312,0.00692422,-0.00266316,1175,1,35.4516,139.637,-599.903,0,0,4.86874,0.00140312,407.56,910.47,-3
1.72604e+09,0.326538,-0.149536,-9.92432,-0.0164051,0.00852212,-0.00234358,1175,1,35.4516,139.637,-599.898,0,0,4.86588,-0.00221878,407.56,910.47,-3
1.72604e+09,0.262451,-0.00610352,-9.93958,-0.0150202,0.00649811,-0.00276969,1175,1,35.4516,139.637,-599.954,0,0,4.86446,-0.00203299,407.79,910.46,-3
1.72604e+09,0.268555,0.0701904,-10.0159,-0.00990696,0.00596548,-0.0015979,1175,1,35.4516,139.637,-599.949,0,0,4.86446,-0.00448309,407.79,910.46,-3
1.72604e+09,0.317383,0.0549316,-10.1166,-0.004048,0.00426106,-0.000852212,3223,1,35.4516,139.637,-599.945,0,0,4.8616,-0.00416352,407.79,910.46,-3
1.72604e+09,0.247192,0.231934,-10.1868,-0.000213053,0.00287621,0.00223706,1175,1,35.4516,139.637,-599.945,0,0,4.8616,-0.00416352,408.03,910.44,-3
1.72604e+09,0.314331,0.320435,-10.2509,0.00181095,-0.000532632,0.00447411,1175,1,35.4516,139.637,-599.937,0,0,4.85587,-0.00341783,408.03,910.44,-3
1.72604e+09,0.3479,0.372314,-10.2234,0.000106526,-0.004048,0.00692422,1175,1,35.4516,139.637,-599.993,0,0,4.85387,-0.00259189,408.26,910.43,-2.9
1.72604e+09,0.265503,0.344849,-10.1257,-0.00351537,-0.00255663,0.0092678,5271,1,35.4516,139.637,-599.994,0,0,4.85387,0.000497381,408.26,910.43,-2.9
1.72604e+09,0.219727,0.360107,-9.9823,-0.00756338,-0.0076699,0.0102265,3223,1,35.4516,139.637,-599.997,0,0,4.85387,0.00273444,408.26,910.43,-2.9
1.72604e+09,0.271606,0.170898,-9.75647,-0.00873517,-0.0072438,0.0132093,1175,1,35.4516,139.637,-599.997,0,0,4.85387,0.00273444,408.5,910.42,-2.9
1.72604e+09,0.256348,0.131226,-9.84192,-0.0108657,-0.0052198,0.0131028,1175,1,35.4516,139.637,-600.014,0,0,4.84241,0.00752813,408.5,910.42,-2.9
1.72604e+09,0.271606,-0.012207,-9.85718,-0.01012,-0.0052198,0.0148072,1175,1,35.4516,139.637,-600.083,0,0,4.8341,0.00856749,408.73,910.41,-2.9
1.72604e+09,0.317383,-0.183105,-9.70764,-0.0092678,-0.00500674,0.0138484,1175,1,35.4516,139.637,-600.095,0,0,4.8341,0.0115502,408.73,910.41,-2.9
1.72604e+09,0.305176,-0.216675,-9.70764,-0.0052198,-0.00255663,0.0112918,3223,1,35.4516,139.637,-600.109,0,0,4.82837,0.0114437,408.73,910.41,-2.9
1.72604e+09,0.286865,-0.247192,-9.78088,-0.00191748,-0.000745685,0.00873517,1175,1,35.4516,139.637,-600.109,0,0,4.82837,0.0114437,408.97,910.4,-2.9
1.72604e+09,0.296021,-0.186157,-9.8877,0.00117179,-0.000106526,0.00745685,1175,1,35.4516,139.637,-600.137,0,0,4.82551,0.0121894,408.97,910.4,-2.9
1.72604e+09,0.262451,-0.109863,-9.83887,0.000852212,-0.000106526,0.00394148,1175,1,35.4516,139.637,-600.221,0,0,4.82269,0.00973324,409.2,910.39,-2.8
1.72604e+09,0.350952,-0.0183105,-9.83887,0,-0.00149137,0.00426106,1175,1,35.4516,139.637,-600.229,0,0,4.81409,0.0071766,409.2,910.39,-2.8
1.72604e+09,0.326538,0.0946045,-9.76868,-0.00213053,-0.00245011,0.00383495,3223,1,35.4516,139.637,-600.236,0,0,4.81123,0.00589828,409.2,910.39,-2.8
1.72604e+09,0.253296,0.00610352,-9.67102,-0.00106526,-0.00127832,0.00426106,1175,1,35.4516,139.637,-600.236,0,0,4.81123,0.00589828,409.43,910.38,-2.8
1.72604e+09,0.274658,0.0152588,-9.68628,-0.00245011,-0.00234358,0.00287621,1175,1,35.4516,139.637,-600.242,0,0,4.81123,0.00270249,409.43,910.38,-2.8
1.72604e+09,0.259399,0.158691,-9.50623,-0.00447411,-0.000426106,0.0015979,1175,1,35.4516,139.637,-600.319,0,0,4.80509,0.00237962,409.67,910.36,-2.8
1.72604e+09,0.256348,0.0946045,-9.56421,-0.00276969,0,0.00415453,1175,1,35.4516,139.637,-600.322,0,0,4.7965,0.00280572,409.67,910.36,-2.8
1.72604e+09,0.250244,0.106812,-9.51843,-0.00298274,0.000106526,0.00447411,1175,1,35.4516,139.637,-600.324,0,0,4.7965,0.00142088,409.67,910.36,-2.8
1.72604e+09,0.320435,0.0793457,-9.53369,-0.00181095,0.00117179,0.00490022,3223,1,35.4516,139.637,-600.324,0,0,4.7965,0.00142088,409.9,910.35,-2.8
1.72604e+09,0.250244,0.146484,-9.58252,-0.000319579,0.00383495,0.00468716,1175,1,35.4516,139.637,-600.33,0,0,4.79363,0.0026992,409.9,910.35,-2.8
1.72604e+09,0.213623,0.158691,-9.67712,-0.000745685,0.00383495,0.00671117,1175,1,35.4516,139.637,-600.333,0,0,4.79363,0.00301878,410.13,910.34,-2.7
1.72604e+09,0.280762,0.12207,-9.74121,-0.00394148,0.00287621,0.00788296,1175,1,35.4516,139.637,-600.407,0,0,4.78899,0.00354378,410.13,910.34,-2.7
1.72604e+09,0.296021,0.137329,-9.69849,-0.0108657,0.00383495,0.01012,3223,1,35.4516,139.637,-600.41,0,0,4.78326,0.00333072,410.13,910.34,-2.7
1.72604e+09,0.253296,-0.00915527,-9.58862,-0.0162985,0.00191748,0.0107592,1175,1,35.4516,139.637,-600.41,0,0,4.78326,0.00333072,410.37,910.33,-2.7
1.72604e+09,0.256348,-0.088501,-9.60388,-0.0147006,0.00596548,0.0117179,1175,1,35.4516,139.637,-600.425,0,0,4.7804,0.00652652,410.37,910.33,-2.7
1.72604e+09,0.259399,-0.170898,-9.73816,-0.00980043,0.00809601,0.0122505,1175,1,35.4516,139.637,-600.492,0,0,4.78015,0.00884306,410.6,910.32,-2.7
1.72604e+09,0.253296,-0.125122,-9.71375,-0.00692422,0.00894822,0.0111853,1175,1,35.4516,139.637,-600.504,0,0,4.77157,0.00948222,410.6,910.32,-2.7
1.72604e+09,0.27771,-0.0579834,-9.86023,-0.00351537,0.00873517,0.0110788,3223,1,35.4516,139.637,-600.516,0,0,4.76584,0.010441,410.6,910.32,-2.7
1.72604e+09,0.271606,-0.0244141,-9.85107,-0.00500674,0.00980043,0.0103331,1175,1,35.4516,139.637,-600.516,0,0,4.76584,0.010441,410.83,910.31,-2.7
1.72604e+09,0.265503,0.0671387,-10.0922,-0.00639159,0.00798948,0.0107592,1175,1,35.4516,139.637,-600.538,0,0,4.7687,0.00990833,410.83,910.31,-2.7
1.72604e+09,0.308228,0.00915527,-10.0586,-0.0110788,0.00468716,0.00980043,1175,1,35.4516,139.637,-600.617,0,0,4.76513,0.00989695,411.06,910.3,-2.6
1.72604e+09,0.283813,0,-10.1257,-0.0152333,-0.000639159,0.00873517,1175,1,35.4516,139.637,-600.628,0,0,4.75654,0.00915127,411.06,910.3,-2.6
1.72604e+09,0.280762,0.0610352,-10.1318,-0.0197074,-0.00330232,0.00841559,3223,1,35.4516,139.637,-600.639,0,0,4.75368,0.00957737,411.06,910.3,-2.6
1.72604e+09,0.311279,-0.0854492,-10.0922,-0.0230097,-0.00756338,0.00703075,1175,1,35.4516,139.637,-600.639,0,0,4.75368,0.00957737,411.29,910.29,-2.6
1.72604e+09,0.244141,-0.152588,-9.96704,-0.0264186,-0.0105461,0.00649811,1175,1,35.4516,139.637,-600.656,0,0,4.75368,0.00755337,411.29,910.29,-2.6
1.72604e+09,0.259399,-0.0640869,-10.0037,-0.0286556,-0.0125701,0.00383495,1175,1,35.4516,139.637,-600.727,0,0,4.74723,0.00732118,411.52,910.28,-2.6
1.72604e+09,0.292969,-0.0946045,-9.96094,-0.0259925,-0.013955,0.00234358,1175,1,35.4516,139.637,-600.733,0,0,4.7415,0.00593633,411.52,910.28,-2.6
1.72604e+09,0.292969,-0.119019,-9.93958,-0.0262055,-0.0153398,-0.000639159,3223,1,35.4516,139.637,-600.74,0,0,4.73864,0.0054037,411.52,910.28,-2.6
1.72604e+09,0.262451,-0.0183105,-9.9762,-0.0246076,-0.0170442,-0.004048,1175,1,35.4516,139.637,-600.74,0,0,4.73864,0.0054037,411.75,910.27,-2.6
1.72604e+09,0.219727,0.00915527,-9.75647,-0.0239684,-0.0193878,-0.00500674,1175,1,35.4516,139.637,-600.742,0,0,4.73292,0.00124917,411.75,910.27,-2.6
1.72604e+09,0.256348,0.12207,-9.58557,-0.0224771,-0.0193878,-0.00628506,1175,1,35.4516,139.637,-600.788,0,0,4.72636,-0.00166565,411.98,910.26,-2.6
1.72604e+09,0.262451,0.247192,-9.61914,-0.0189617,-0.0157659,-0.00681769,1175,1,35.4516,139.637,-600.782,0,0,4.71777,-0.00507449,411.98,910.26,-2.6
1.72604e+09,0.22583,0.259399,-9.7229,-0.0134223,-0.0125701,-0.00372843,3223,1,35.4516,139.637,-600.776,0,0,4.71491,-0.00603323,411.98,910.26,-2.6
1.72604e+09,0.259399,0.289917,-9.76868,-0.00500674,-0.0123571,-0.000106526,1175,1,35.4516,139.637,-600.776,0,0,4.71491,-0.00603323,412.21,910.25,-2.6
1.72604e+09,0.262451,0.466919,-9.64661,0.004048,-0.0123571,0.00383495,1175,1,35.4516,139.637,-600.758,0,0,4.70633,-0.00784418,412.21,910.25,-2.6
1.72604e+09,0.216675,0.518799,-9.75647,0.0107592,-0.012144,0.00884169,1175,1,35.4516,139.637,-600.798,0,0,4.70256,-0.00468914,412.44,910.24,-2.5
1.72604e+09,0.247192,0.512695,-9.67712,0.0113983,-0.0123571,0.0128897,1175,1,35.4516,139.637,-600.797,0,0,4.70256,-0.00106724,412.44,910.24,-2.5
1.72604e+09,0.317383,0.500488,-9.62524,0.00660464,-0.0102265,0.015979,3223,1,35.4516,139.637,-600.8,0,0,4.70829,0.00287423,412.44,910.24,-2.5
1.72604e+09,0.247192,0.344849,-9.7168,0.000213053,-0.00937433,0.0187487,1175,1,35.4516,139.637,-600.8,0,0,4.70829,0.00287423,412.67,910.23,-2.5
1.72604e+09,0.238037,0.119019,-9.75037,-0.0036219,-0.00862864,0.0197074,1175,1,35.4516,139.637,-600.828,0,0,4.69398,0.011929,412.67,910.23,-2.5
1.72604e+09,0.296021,-0.0610352,-9.66797,-0.00649811,-0.00820254,0.0185356,1175,1,35.4516,139.637,-600.882,0,0,4.69302,0.0150697,412.89,910.22,-2.5
1.72604e+09,0.259399,-0.20752,-9.65881,-0.00745685,-0.0076699,0.0174703,5271,1,35.4516,139.637,-600.902,0,0,4.68444,0.0178394,412.89,910.22,-2.5
1.72604e+09,0.271606,-0.341797,-9.67102,-0.00649811,-0.00894822,0.0152333,3223,1,35.4516,139.637,-600.922,0,0,4.68444,0.0187981,412.89,910.22,-2.5
1.72604e+09,0.341797,-0.38147,-9.8938,-0.00298274,-0.00809601,0.0125701,1175,1,35.4516,139.637,-600.922,0,0,4.68444,0.0187981,413.12,910.21,-2.4
1.72604e+09,0.338745,-0.421143,-9.98535,0.000319579,-0.0107592,0.00905475,1175,1,35.4516,139.637,-600.96,0,0,4.68444,0.0165611,413.12,910.21,-2.4
1.72604e+09,0.32959,-0.338745,-9.93347,0.00266316,-0.0132093,0.00649811,1175,1,35.4516,139.637,-600.737,0,0,4.65966,0.0139151,413.35,910.21,-2.4
1.72604e+09,0.286865,-0.201416,-9.83276,0.00426106,-0.0136354,0.00372843,1175,1,35.4516,139.637,-600.75,0,0,4.65397,0.011252,413.35,910.21,-2.4
1.72604e+09,0.271606,0.0183105,-9.78394,0.004048,-0.0128897,0.002024,3223,1,35.4516,139.637,-600.758,0,0,4.65112,0.00773659,413.35,910.21,-2.4
1.72604e+09,0.231934,0.0671387,-9.74731,-0.000426106,-0.0127832,0.00308927,1175,1,35.4516,139.637,-600.758,0,0,4.65112,0.00773659,413.58,910.2,-2.4
1.72604e+09,0.283813,0.0335693,-9.69238,-0.00543285,-0.0115049,0.00298274,1175,1,35.4516,139.637,-600.763,0,0,4.64542,0.00241027,413.58,910.2,-2.4
1.72604e+09,0.271606,0.201416,-9.64355,-0.0128897,-0.00884169,-0.000639159,1175,1,35.4516,139.637,-600.596,0,0,4.63882,0.000418526,413.8,910.19,-2.4
1.72604e+09,0.22583,0.186157,-9.60999,-0.0174703,-0.00809601,-0.000213053,1175,1,35.4516,139.637,-600.597,0,0,4.63882,0.00148379,413.8,910.19,-2.4
1.72604e+09,0.274658,0.0396729,-9.49097,-0.0213053,-0.0052198,-0.000639159,3223,1,35.4516,139.637,-600.599,0,0,4.63597,0.00137726,413.8,910.19,-2.4
1.72604e+09,0.262451,0.0793457,-9.46655,-0.024075,-0.004048,-0.00170442,1175,1,35.4516,139.637,-600.599,0,0,4.63597,0.00137726,414.03,910.18,-2.4
1.72604e+09,0.250244,0.119019,-9.49707,-0.022264,-0.000319579,-0.000319579,1175,1,35.4516,139.637,-600.595,0,0,4.63028,-0.00181853,414.03,910.18,-2.4
1.72604e+09,0.213623,0.164795,-9.42993,-0.0186421,0.00181095,0.000639159,1175,1,35.4516,139.637,-600.483,0,0,4.63317,-0.00243444,414.26,910.17,-2.3
1.72604e+09,0.247192,0.213623,-9.53674,-0.0107592,0.00298274,0.00394148,1175,1,35.4516,139.637,-600.479,0,0,4.63033,-0.00349971,414.26,910.17,-2.3
1.72604e+09,0.244141,0.262451,-9.56116,-0.0036219,0.00351537,0.00703075,3223,1,35.4516,139.637,-600.477,0,0,4.62463,-0.00211486,414.26,910.17,-2.3
1.72604e+09,0.231934,0.244141,-9.57947,0.00351537,0.00170442,0.0129962,1175,1,35.4516,139.637,-600.477,0,0,4.62463,-0.00211486,414.48,910.16,-2.3
1.72604e+09,0.234985,0.305176,-9.68018,0.00553938,0.00255663,0.0160855,1175,1,35.4516,139.637,-600.481,0,0,4.62178,0.00214619,414.48,910.16,-2.3
1.72604e+09,0.27771,0.350952,-9.8053,0.00426106,0.00117179,0.0196009,1175,1,35.4516,139.637,-600.435,0,0,4.63002,0.00513449,414.71,910.15,-2.2
1.72604e+09,0.308228,0.238037,-9.92126,-0.0015979,-0.00138484,0.0218379,1175,1,35.4516,139.637,-600.447,0,0,4.63002,0.0111,414.71,910.15,-2.2
1.72604e+09,0.238037,0.106812,-9.90601,-0.0118244,-0.00351537,0.0208792,3223,1,35.4516,139.637,-600.463,0,0,4.63002,0.0141892,414.71,910.15,-2.2
1.72604e+09,0.253296,0.0152588,-9.76563,-0.0173638,-0.00490022,0.0198139,1175,1,35.4516,139.637,-600.463,0,0,4.63002,0.0141892,414.93,910.15,-2.2
1.72604e+09,0.250244,-0.149536,-9.8114,-0.0215183,-0.00426106,0.0199204,1175,1,35.4516,139.637,-600.509,0,0,4.62432,0.0199417,414.93,910.15,-2.2
1.72604e+09,0.216675,-0.271606,-9.84802,-0.0221575,-0.00532632,0.0172573,1175,1,35.4516,139.637,-600.507,0,0,4.62713,0.0189293,415.16,910.14,-2.2
1.72604e+09,0.332642,-0.32959,-9.90906,-0.0192813,-0.00703075,0.0149137,1175,1,35.4516,139.637,-600.527,0,0,4.62713,0.017864,415.16,910.14,-2.2
1.72604e+09,0.280762,-0.338745,-9.86633,-0.0156594,-0.00841559,0.0129962,3223,1,35.4516,139.637,-600.547,0,0,4.62428,0.0179705,415.16,910.14,-2.2
1.72604e+09,0.238037,-0.253296,-9.97925,-0.0122505,-0.00703075,0.00862864,1175,1,35.4516,139.637,-600.547,0,0,4.62428,0.0179705,415.38,910.13,-2.1
1.72604e+09,0.302124,-0.140381,-9.96399,-0.00969391,-0.00798948,0.00681769,1175,1,35.4516,139.637,-600.577,0,0,4.62142,0.0129638,415.38,910.13,-2.1
1.72604e+09,0.259399,0.0335693,-9.90601,-0.0104396,-0.00916127,0.00713727,1175,1,35.4516,139.637,-600.6,0,0,4.62075,0.0110467,415.61,910.12,-2.1
1.72604e+09,0.22583,0.00305176,-9.86938,-0.0120375,-0.00884169,0.00628506,1175,1,35.4516,139.637,-600.608,0,0,4.61503,0.00667915,415.61,910.12,-2.1
1.72604e+09,0.241089,0.15564,-9.82361,-0.0160855,-0.00884169,0.0056459,3223,1,35.4516,139.637,-600.613,0,0,4.61503,0.0048682,415.61,910.12,-2.1
1.72604e+09,0.271606,0.222778,-9.74426,-0.020027,-0.00809601,0.00575243,1175,1,35.4516,139.637,-600.613,0,0,4.61503,0.0048682,415.83,910.12,-2.1
1.72604e+09,0.219727,0.192261,-9.87549,-0.0224771,-0.00649811,0.00628506,1175,1,35.4516,139.637,-600.623,0,0,4.60646,0.00433557,415.83,910.12,-2.1
1.72604e+09,0.234985,0.137329,-9.83887,-0.0230097,-0.00841559,0.00639159,1175,1,35.4516,139.637,-600.645,0,0,4.61062,0.00371102,416.06,910.11,-2.1
1.72604e+09,0.335693,0.0366211,-9.76868,-0.0171508,-0.0117179,0.00596548,1175,1,35.4516,139.637,-600.649,0,0,4.61062,0.00381754,416.06,910.11,-2.1
1.72604e+09,0.256348,0.128174,-9.74121,-0.012144,-0.0110788,0.00308927,3223,1,35.4516,139.637,-600.654,0,0,4.61062,0.00435017,416.06,910.11,-2.1
1.72604e+09,0.259399,0.12207,-9.67102,-0.00820254,-0.0106526,0.00298274,1175,1,35.4516,139.637,-600.654,0,0,4.61062,0.00435017,416.28,910.1,-2.1
1.72604e+09,0.265503,0.112915,-9.59167,-0.0056459,-0.00777643,0.000532632,1175,1,35.4516,139.637,-600.664,0,0,4.6049,0.0040306,416.28,910.1,-2.1
1.72604e+09,0.250244,0.192261,-9.64355,-0.00490022,-0.00479369,-0.00170442,1175,1,35.4516,139.637,-600.704,0,0,4.60526,0.00120127,416.5,910.09,-2.1
1.72604e+09,0.274658,0.213623,-9.6283,-0.00191748,-0.00372843,-0.00149137,1175,1,35.4516,139.637,-600.705,0,0,4.59954,0.00109474,416.5,910.09,-2.1
1.72604e+09,0.296021,0.216675,-9.73206,0.000213053,-0.000213053,-0.000852212,3223,1,35.4516,139.637,-600.703,0,0,4.59667,-0.00135536,416.5,910.09,-2.1
1.72604e+09,0.271606,0.238037,-9.74121,0.00276969,-0.000319579,-0.000958738,1175,1,35.4516,139.637,-600.703,0,0,4.59667,-0.00135536,416.73,910.08,-2
1.72604e+09,0.268555,0.408936,-9.79004,0.00340885,0.00149137,0.00117179,1175,1,35.4515,139.637,-600.695,0,0,4.59954,-0.00337937,416.73,910.08,-2
1.72604e+09,0.289917,0.326538,-9.85413,0.0056459,0.000639159,0.00436758,1175,1,35.4515,139.637,-600.739,0,0,4.59893,-0.00267988,416.95,910.08,-2
1.72604e+09,0.250244,0.280762,-9.82666,0.00830906,0.000426106,0.00820254,1175,1,35.4515,139.637,-600.736,0,0,4.59893,-0.0027864,416.95,910.08,-2
1.72604e+09,0.286865,0.20752,-9.80225,0.0108657,-0.000426106,0.0127832,3223,1,35.4515,139.637,-600.735,0,0,4.59607,-0.000655874,416.95,910.08,-2
1.72604e+09,0.253296,0.192261,-9.6405,0.0109722,-0.00181095,0.0143811,1175,1,35.4515,139.637,-600.735,0,0,4.59607,-0.000655874,417.17,910.07,-2
1.72604e+09,0.259399,0.106812,-9.50928,0.00809601,0.000213053,0.0164051,1175,1,35.4515,139.637,-600.749,0,0,4.59034,0.00637487,417.17,910.07,-2
1.72604e+09,0.241089,0.0366211,-9.48181,0.00415453,0.00458064,0.0157659,1175,1,35.4515,139.637,-600.82,0,0,4.5919,0.0110325,417.4,910.06,-2
1.72604e+09,0.238037,-0.0183105,-9.53674,0.000213053,0.0072438,0.0158724,5271,1,35.4515,139.637,-600.834,0,0,4.5919,0.0126304,417.4,910.06,-2
1.72604e+09,0.265503,-0.137329,-9.60999,-0.000426106,0.00884169,0.0150202,3223,1,35.4515,139.637,-600.851,0,0,4.58617,0.0146544,417.4,910.06,-2
1.72604e+09,0.283813,-0.222778,-9.66492,-0.000319579,0.0108657,0.0132093,1175,1,35.4515,139.637,-600.851,0,0,4.58617,0.0146544,417.62,910.06,-1.9
1.72604e+09,0.292969,-0.241089,-9.78088,-0.000639159,0.0110788,0.011931,1175,1,35.4515,139.637,-600.883,0,0,4.57758,0.0141217,417.62,910.06,-1.9
1.72604e+09,0.250244,-0.259399,-9.66187,-0.00181095,0.0106526,0.00809601,1175,1,35.4515,139.637,-600.945,0,0,4.58119,0.0133326,417.84,910.05,-1.9
1.72604e+09,0.228882,-0.219727,-9.68018,-0.00383495,0.0103331,0.00596548,1175,1,35.4515,139.637,-600.958,0,0,4.58119,0.0115216,417.84,910.05,-1.9
1.72604e+09,0.274658,-0.0244141,-9.71985,-0.00628506,0.0106526,0.00255663,1175,1,35.4515,139.637,-600.97,0,0,4.57832,0.0102433,417.84,910.05,-1.9
1.72604e+09,0.262451,-0.0579834,-9.80225,-0.00969391,0.0129962,0.0015979,3223,1,35.4515,139.637,-600.97,0,0,4.57832,0.0102433,418.06,910.04,-1.9
1.72604e+09,0.296021,-0.0396729,-9.83582,-0.0160855,0.0104396,0.000319579,1175,1,35.4515,139.637,-600.98,0,0,4.57259,0.00427782,418.06,910.04,-1.9
1.72604e+09,0.241089,0.115967,-9.82971,-0.0190682,0.0104396,-0.000426106,1175,1,35.4515,139.637,-600.981,0,0,4.57259,0.000868971,418.28,910.03,-1.9
1.72604e+09,0.219727,0.0183105,-9.94263,-0.0201335,0.00958738,0.000213053,1175,1,35.4515,139.637,-601.024,0,0,4.56605,-2.81909e-05,418.28,910.03,-1.9
1.72604e+09,0.253296,0.0274658,-9.84497,-0.020027,0.0072438,-0.00149137,3223,1,35.4515,139.637,-601.022,0,0,4.56319,-0.00130651,418.28,910.03,-1.9
1.72604e+09,0.256348,0.164795,-9.87854,-0.0187487,0.00660464,-0.00191748,1175,1,35.4515,139.637,-601.022,0,0,4.56319,-0.00130651,418.5,910.03,-1.9
1.72604e+09,0.238037,0.180054,-9.84192,-0.0186421,0.00468716,0,1175,1,35.4515,139.637,-601.019,0,0,4.55746,-0.00141303,418.5,910.03,-1.9
1.72604e+09,0.15564,0.265503,-9.61304,-0.0145941,0.00500674,0.000639159,1175,1,35.4515,139.637,-601.068,0,0,4.55478,-0.00304503,418.73,910.02,-1.8
1.72604e+09,0.204468,0.216675,-9.55505,-0.00713727,0.00511327,0.00330232,1175,1,35.4515,139.637,-601.064,0,0,4.55478,-0.00347114,418.73,910.02,-1.8
1.72604e+09,0.210571,0.247192,-9.64355,0.00138484,0.00777643,0.00500674,3223,1,35.4515,139.637,-601.062,0,0,4.55191,-0.00155366,418.73,910.02,-1.8
1.72604e+09,0.22583,0.350952,-9.87854,0.00884169,0.00937433,0.00649811,1175,1,35.4515,139.637,-601.062,0,0,4.55191,-0.00155366,418.95,910.01,-1.8
1.72604e+09,0.259399,0.378418,-10.0494,0.0112918,0.00660464,0.00916127,1175,1,35.4515,139.637,-601.066,0,0,4.54618,0.00174866,418.95,910.01,-1.8
1.72604e+09,0.244141,0.439453,-10.0739,0.00660464,0.0036219,0.0103331,1175,1,35.4515,139.637,-601.139,0,0,4.54303,0.00354953,419.17,910.01,-1.8
1.72604e+09,0.259399,0.354004,-10.1166,0.000106526,0.000745685,0.0110788,1175,1,35.4515,139.637,-601.145,0,0,4.54589,0.0050409,419.17,910.01,-1.8
1.72604e+09,0.265503,0.204468,-9.94873,-0.00308927,-0.00213053,0.0117179,3223,1,35.4515,139.637,-601.153,0,0,4.54589,0.00770406,419.17,910.01,-1.8
1.72604e+09,0.231934,-0.00610352,-9.9823,-0.00447411,-0.00255663,0.0110788,1175,1,35.4515,139.637,-601.153,0,0,4.54589,0.00770406,419.39,910,-1.8
1.72604e+09,0.222778,-0.0976563,-9.99756,-0.0056459,-0.00213053,0.00884169,1175,1,35.4515,139.637,-601.175,0,0,4.54303,0.00962153,419.39,910,-1.8
1.72604e+09,0.289917,-0.247192,-9.95789,-0.00213053,-0.00340885,0.00862864,1175,1,35.4515,139.637,-601.243,0,0,4.53695,0.0103388,419.61,910,-1.8
1.72604e+09,0.238037,-0.280762,-9.91211,-0.00117179,-0.00383495,0.00713727,1175,1,35.4515,139.637,-601.254,0,0,4.53408,0.00969968,419.61,910,-1.8
1.72604e+09,0.183105,-0.177002,-9.86023,0.00191748,-0.00383495,0.00532632,3223,1,35.4515,139.637,-601.263,0,0,4.53408,0.00746263,419.61,910,-1.8
1.72604e+09,0.259399,-0.17395,-9.80835,0.00713727,-0.00617853,0.00351537,1175,1,35.4515,139.637,-601.263,0,0,4.53408,0.00746263,419.83,909.99,-1.7
1.72604e+09,0.259399,-0.12207,-9.82666,0.00873517,-0.00394148,0.00106526,1175,1,35.4515,139.637,-601.276,0,0,4.52549,0.0057582,419.83,909.99,-1.7
1.72604e+09,0.247192,0,-9.9823,0.00735032,-0.00415453,0.000852212,1175,1,35.4515,139.637,-601.335,0,0,4.52216,0.00402453,420.05,909.98,-1.7
1.72604e+09,0.344849,0.0854492,-10.0586,0.00543285,-0.00585895,-0.000213053,1175,1,35.4515,139.637,-601.338,0,0,4.51643,0.00221358,420.05,909.98,-1.7
1.72604e+09,0.27771,0.0823975,-9.95483,0.00138484,-0.0072438,0.000106526,3223,1,35.4515,139.637,-601.338,0,0,4.51357,-0.000236532,420.05,909.98,-1.7
1.72604e+09,0.244141,0.186157,-9.87244,-0.00532632,-0.00703075,-0.000426106,1175,1,35.4515,139.637,-601.338,0,0,4.51357,-0.000236532,420.27,909.98,-1.7
1.72604e+09,0.210571,0.222778,-9.85718,-0.00703075,-0.00660464,-0.000319579,1175,1,35.4515,139.637,-601.334,0,0,4.50211,-0.00151485,420.27,909.98,-1.7
1.72604e+09,0.311279,0.146484,-9.64661,-0.00884169,-0.00735032,0.000852212,1175,1,35.4515,139.637,-601.395,0,0,4.50164,-0.0011079,420.49,909.97,-1.7
1.72604e+09,0.286865,0.250244,-9.6344,-0.0108657,-0.00383495,0.00117179,1175,1,35.4515,139.637,-601.393,0,0,4.49591,-0.00164053,420.49,909.97,-1.7
1.72604e+09,0.186157,0.189209,-9.49097,-0.0129962,0.000639159,0.00447411,3223,1,35.4515,139.637,-601.391,0,0,4.49305,-0.00153401,420.49,909.97,-1.7
1.72604e+09,0.222778,0.149536,-9.63135,-0.0132093,0.00532632,0.00532632,1175,1,35.4515,139.637,-601.391,0,0,4.49305,-0.00153401,420.71,909.96,-1.7
1.72604e+09,0.265503,0.115967,-9.80225,-0.0160855,0.00543285,0.00628506,1175,1,35.4515,139.637,-601.391,0,0,4.49305,-4.26357e-05,420.71,909.96,-1.7
1.72604e+09,0.253296,0.0854492,-9.8938,-0.0193878,0.00426106,0.00596548,1175,1,35.4515,139.637,-601.443,0,0,4.48103,0.00332773,420.92,909.96,-1.7
1.72604e+09,0.289917,0,-9.94568,-0.0171508,-0.00170442,0.00617853,1175,1,35.4515,139.637,-601.448,0,0,4.48103,0.00417994,420.92,909.96,-1.7
1.72604e+09,0.280762,-0.0518799,-9.82056,-0.0176834,-0.00287621,0.00575243,3223,1,35.4515,139.637,-601.454,0,0,4.48389,0.00513868,420.92,909.96,-1.7
1.72604e+09,0.152588,-0.00610352,-9.63135,-0.0169377,-0.00735032,0.00596548,1175,1,35.4515,139.637,-601.454,0,0,4.48389,0.00513868,421.14,909.95,-1.7
1.72604e+09,0.22583,0.0152588,-9.71985,-0.0154463,-0.01012,0.00543285,1175,1,35.4515,139.637,-601.465,0,0,4.48103,0.00503215,421.14,909.95,-1.7
1.72604e+09,0.256348,-0.012207,-9.73511,-0.0122505,-0.0135289,0.00585895,1175,1,35.4515,139.637,-601.539,0,0,4.48017,0.0047023,421.36,909.95,-1.7
1.72604e+09,0.213623,0.0152588,-9.67712,-0.00703075,-0.0167247,0.00436758,1175,1,35.4515,139.637,-601.544,0,0,4.46872,0.00491535,421.36,909.95,-1.7
1.72604e+09,0.265503,0.143433,-9.68018,-0.00447411,-0.0192813,0.00383495,3223,1,35.4515,139.637,-601.549,0,0,4.46872,0.00438272,421.36,909.95,-1.7
1.72604e+09,0.268555,0.115967,-9.53064,-0.00170442,-0.0188552,0.00543285,1175,1,35.4515,139.637,-601.549,0,0,4.46872,0.00438272,421.58,909.94,-1.6
1.72604e+09,0.201416,0.192261,-9.41162,-0.00500674,-0.0157659,0.004048,1175,1,35.4515,139.637,-601.557,0,0,4.46013,0.00331745,421.58,909.94,-1.6
1.72604e+09,0.180054,0.137329,-9.34448,-0.00639159,-0.0100135,0.00468716,1175,1,35.4515,139.637,-601.609,0,0,4.45658,0.00285394,421.79,909.93,-1.6
1.72604e+09,0.137329,0.109863,-9.29565,-0.0100135,-0.00191748,0.00191748,5271,1,35.4515,139.637,-601.614,0,0,4.45372,0.00445184,421.79,909.93,-1.6
1.72604e+09,0.262451,-0.0274658,-9.57031,-0.0109722,0.00213053,0.000213053,3223,1,35.4515,139.637,-601.617,0,0,4.44513,0.00306699,421.79,909.93,-1.6
1.72604e+09,0.292969,-0.0305176,-9.68628,-0.0126766,0.0056459,-0.00276969,1175,1,35.4515,139.637,-601.617,0,0,4.44513,0.00306699,422.01,909.93,-1.7
1.72604e+09,0.22583,-0.0427246,-9.92737,-0.013955,0.0076699,-0.00607201,1175,1,35.4515,139.637,-601.619,0,0,4.43941,0.000936464,422.01,909.93,-1.7
1.72604e+09,0.244141,0,-9.99756,-0.0168312,0.00692422,-0.00894822,1175,1,35.4515,139.637,-601.689,0,0,4.44445,-0.00066755,422.22,909.92,-1.7
1.72604e+09,0.271606,0.0823975,-10.1532,-0.0207727,0.0036219,-0.0109722,1175,1,35.4515,139.637,-601.685,0,0,4.44731,-0.00365029,422.22,909.92,-1.7
1.72604e+09,0.268555,-0.0915527,-10.0616,-0.0189617,0,-0.0132093,3223,1,35.4515,139.637,-601.677,0,0,4.44445,-0.00695261,422.22,909.92,-1.7
1.72604e+09,0.280762,0.0305176,-9.99756,-0.016192,-0.00468716,-0.0149137,1175,1,35.4515,139.637,-601.677,0,0,4.44445,-0.00695261,422.44,909.91,-1.7
1.72604e+09,0.241089,0.0946045,-9.99451,-0.0103331,-0.00596548,-0.0125701,1175,1,35.4515,139.637,-601.65,0,0,4.44731,-0.0118528,422.44,909.91,-1.7
1.72604e+09,0.256348,0.140381,-9.96704,-0.00287621,-0.00713727,-0.0122505,1175,1,35.4515,139.637,-601.696,0,0,4.44071,-0.014001,422.65,909.91,-1.7
1.72604e+09,0.262451,0.314331,-9.97925,0.00458064,-0.0105461,-0.0108657,1175,1,35.4515,139.637,-601.678,0,0,4.43213,-0.0157055,422.65,909.91,-1.7
1.72604e+09,0.20752,0.378418,-10.0922,0.0113983,-0.0131028,-0.00820254,3223,1,35.4515,139.637,-601.663,0,0,4.4264,-0.0133619,422.65,909.91,-1.7
1.72604e+09,0.247192,0.473022,-10.0067,0.0143811,-0.0172573,-0.0052198,1175,1,35.4515,139.637,-601.663,0,0,4.4264,-0.0133619,422.87,909.9,-1.7
1.72604e+09,0.314331,0.506592,-9.97925,0.0153398,-0.0198139,-0.00149137,1175,1,35.4515,139.637,-601.637,0,0,4.42068,-0.0116574,422.87,909.9,-1.7
1.72604e+09,0.231934,0.506592,-9.82666,0.00916127,-0.0205596,0.00106526,1175,1,35.4515,139.637,-601.663,0,0,4.41979,-0.00894034,423.08,909.89,-1.7
1.72604e+09,0.0793457,0.454712,-9.64355,0.00170442,-0.0190682,0.00426106,1175,1,35.4515,139.637,-601.656,0,0,4.41693,-0.0059576,423.08,909.89,-1.7
1.72604e+09,0.387573,0.292969,-9.91821,-0.00330232,-0.0166181,0.0056459,3223,1,35.4515,139.637,-601.654,0,0,4.41693,-0.00222917,423.08,909.89,-1.7
1.72604e+09,0.305176,-0.00610352,-10.2081,-0.00447411,-0.0196009,0.0056459,1175,1,35.4515,139.637,-601.654,0,0,4.41693,-0.00222917,423.3,909.89,-1.7
1.72604e+09,0.262451,-0.234985,-10.614,-0.00117179,-0.0236489,0.00340885,1175,1,35.4515,139.637,-601.662,0,0,4.40263,0.00352326,423.3,909.89,-1.7
1.72604e+09,0.241089,-0.305176,-10.0067,0.00351537,-0.0376038,0.000639159,1175,1,35.4515,139.637,-601.713,0,0,4.40464,0.00497289,423.51,909.88,-1.7
1.72604e+09,0.445557,-0.222778,-9.73511,0.0136354,-0.0421845,-0.00149137,1175,1,35.4515,139.637,-601.719,0,0,4.40178,0.00497289,423.51,909.88,-1.7
1.72604e+09,0.0701904,-0.183105,-9.19189,0.0185356,-0.0387756,-0.00330232,3223,1,35.4515,139.637,-601.722,0,0,4.40178,0.00273584,423.51,909.88,-1.7
1.72604e+09,0.0579834,-0.0152588,-8.95996,0.014168,-0.0324906,-0.00607201,1175,1,35.4515,139.637,-601.722,0,0,4.40178,0.00273584,423.73,909.87,-1.7
1.72604e+09,0.317383,0.183105,-9.14307,0.00777643,-0.0207727,-0.0072438,1175,1,35.4515,139.637,-601.717,0,0,4.40178,-0.00216438,423.73,909.87,-1.7
1.72604e+09,0.125122,0.125122,-9.03931,-0.00266316,-0.0158724,-0.00660464,1175,1,35.4515,139.637,-601.771,0,0,4.37801,-0.00389065,423.94,909.87,-1.7
1.72604e+09,0.137329,0.106812,-9.00269,-0.00937433,-0.00884169,-0.00841559,1175,1,35.4515,139.637,-601.764,0,0,4.36657,-0.00666034,423.94,909.87,-1.7
1.72604e+09,0.195313,0.0579834,-8.87451,-0.0145941,-0.000319579,-0.00671117,3223,1,35.4515,139.637,-601.755,0,0,4.37515,-0.00783213,423.94,909.87,-1.7
1.72604e+09,0.143433,0.0305176,-9.11865,-0.0123571,0.00745685,-0.00628506,1175,1,35.4515,139.637,-601.755,0,0,4.37515,-0.00783213,424.15,909.86,-1.7
1.72604e+09,0.228882,0.00915527,-9.1095,-0.00990696,0.0128897,-0.00532632,1175,1,35.4515,139.637,-601.734,0,0,4.37515,-0.00900392,424.15,909.86,-1.7
1.72604e+09,0.314331,0.0427246,-9.85107,-0.0072438,0.0169377,-0.00500674,1175,1,35.4515,139.637,-601.784,0,0,4.38017,-0.0072165,424.37,909.85,-1.8
1.72604e+09,0.27771,0.167847,-10.0342,-0.00756338,0.0147006,-0.00479369,1175,1,35.4515,139.637,-601.776,0,0,4.37731,-0.0067904,424.37,909.85,-1.8
1.72604e+09,0.384521,0.134277,-10.3607,-0.00830906,0.0105461,-0.00308927,3223,1,35.4515,139.637,-601.77,0,0,4.38017,-0.00583166,424.37,909.85,-1.8
1.72604e+09,0.302124,0.177002,-10.3912,-0.00969391,0.00415453,-0.00127832,1175,1,35.4515,139.637,-601.77,0,0,4.38017,-0.00583166,424.58,909.85,-1.8
1.72604e+09,0.311279,0.167847,-10.3851,-0.0115049,-0.00319579,-0.0015979,1175,1,35.4515,139.637,-601.758,0,0,4.38589,-0.00529903,424.58,909.85,-1.8
1.72604e+09,0.357056,0.100708,-10.26,-0.0110788,-0.00948085,-0.00117179,1175,1,35.4515,139.637,-601.779,0,0,4.38519,-0.00355782,424.8,909.84,-1.8
1.72604e+09,0.286865,0.112915,-10.0983,-0.0102265,-0.0116114,-0.00213053,1175,1,35.4515,139.637,-601.777,0,0,4.38519,-0.00174687,424.8,909.84,-1.8
1.72604e+09,0.213623,0.0610352,-9.94263,-0.0124636,-0.0133158,-0.002024,3223,1,35.4515,139.637,-601.774,0,0,4.38519,-0.00206645,424.8,909.84,-1.8
1.72604e+09,0.262451,0.0457764,-9.85718,-0.0142745,-0.0124636,-0.00383495,1175,1,35.4515,139.637,-601.774,0,0,4.38519,-0.00206645,425.01,909.83,-1.8
1.72604e+09,0.247192,0.0396729,-9.70764,-0.014168,-0.0115049,-0.00426106,1175,1,35.4515,139.637,-601.769,0,0,4.37376,-0.00259909,425.01,909.83,-1.8
1.72604e+09,0.256348,0.0579834,-9.93347,-0.0120375,-0.0110788,-0.00532632,1175,1,35.4515,139.637,-601.827,0,0,4.36443,-0.00240535,425.22,909.83,-1.8
1.72604e+09,0.286865,0.146484,-9.7168,-0.00852212,-0.0111853,-0.00639159,1175,1,35.4515,139.637,-601.822,0,0,4.36443,-0.0042163,425.22,909.83,-1.8
1.72604e+09,0.241089,0.204468,-9.82971,-0.00788296,-0.0092678,-0.00649811,3223,1,35.4515,139.637,-601.817,0,0,4.35871,-0.0046424,425.22,909.83,-1.8
1.72604e+09,0.198364,0.265503,-9.59167,-0.0137419,-0.00990696,-0.00585895,1175,1,35.4515,139.637,-601.817,0,0,4.35871,-0.0046424,425.43,909.82,-1.8
1.72604e+09,0.17395,0.344849,-9.50928,-0.0143811,-0.00777643,-0.00383495,1175,1,35.4515,139.637,-601.801,0,0,4.353,-0.00677293,425.43,909.82,-1.8
1.72604e+09,0.231934,0.12207,-9.35364,-0.0109722,-0.00713727,-0.000106526,1175,1,35.4515,139.637,-601.839,0,0,4.34928,-0.00681396,425.65,909.81,-1.8
1.72604e+09,0.231934,-0.012207,-9.47571,-0.0036219,-0.004048,-0.000532632,1175,1,35.4515,139.637,-601.832,0,0,4.34928,-0.0061748,425.65,909.81,-1.8
1.72604e+09,0.20752,0,-9.59473,0.00276969,-0.00234358,-0.000639159,3223,1,35.4515,139.637,-601.827,0,0,4.34928,-0.0041508,425.65,909.81,-1.8
1.72604e+09,0.317383,0.088501,-9.82361,0.0105461,-0.0052198,-0.00330232,1175,1,35.4515,139.637,-601.827,0,0,4.34928,-0.0041508,425.86,909.81,-1.8
1.72604e+09,0.286865,0.00610352,-9.6283,0.0092678,-0.0076699,-0.00458064,1175,1,35.4515,139.637,-601.825,0,0,4.34071,-0.000848479,425.86,909.81,-1.8
1.72604e+09,0.109863,0.134277,-9.46655,0.00330232,-0.00585895,-0.00948085,1175,1,35.4515,139.637,-601.857,0,0,4.34271,-0.000906477,426.07,909.8,-1.8
1.72604e+09,0.143433,0.244141,-8.95081,-0.00170442,-0.0056459,-0.0142745,5271,1,35.4515,139.637,-601.853,0,0,4.34557,-0.00356964,426.07,909.8,-1.8
1.72604e+09,0.0244141,0.186157,-8.50525,-0.00149137,0.00468716,-0.0160855,3223,1,35.4515,139.637,-601.848,0,0,4.34271,-0.00484796,426.07,909.8,-1.8
1.72604e+09,0.332642,0.140381,-8.9325,0.00426106,0.0167247,-0.0143811,1175,1,35.4515,139.637,-601.848,0,0,4.34271,-0.00484796,426.28,909.79,-1.9
1.72604e+09,0.231934,0.161743,-9.24377,0.0116114,0.0266316,-0.0129962,1175,1,35.4515,139.637,-601.815,0,0,4.337,-0.0145419,426.28,909.79,-1.9
1.72604e+09,0.262451,0.363159,-10.0037,0.018003,0.0349407,-0.0105461,1175,1,35.4515,139.637,-601.821,0,0,4.33607,-0.0163158,426.49,909.78,-1.9
1.72604e+09,0.250244,0.341797,-9.85718,0.0255663,0.0315318,-0.00628506,1175,1,35.4515,139.637,-601.804,0,0,4.33036,-0.0146114,426.49,909.78,-1.9
1.72604e+09,0.289917,0.259399,-10.2295,0.0320645,0.0325971,-0.0015979,3223,1,35.4515,139.637,-601.789,0,0,4.33036,-0.0132265,426.49,909.78,-1.9
1.72604e+09,0.204468,0.326538,-10.4004,0.0339819,0.0289752,0.000213053,1175,1,35.4515,139.637,-601.789,0,0,4.33036,-0.0132265,426.71,909.78,-1.9
1.72604e+09,0.344849,0.238037,-10.4858,0.0354733,0.0201335,0.004048,1175,1,35.4515,139.637,-601.775,0,0,4.34178,-0.00651538,426.71,909.78,-1.9
1.72604e+09,0.305176,0.20752,-10.6781,0.0322775,0.0142745,0.00649811,1175,1,35.4515,139.637,-601.799,0,0,4.34667,-0.00178949,426.92,909.77,-1.9
1.72604e+09,0.283813,0.0793457,-10.6689,0.0259925,0.00511327,0.0076699,1175,1,35.4515,139.637,-601.799,0,0,4.34667,2.14552e-05,426.92,909.77,-1.9
1.72604e+09,0.335693,-0.0183105,-10.5713,0.0192813,-0.0072438,0.00607201,3223,1,35.4515,139.637,-601.803,0,0,4.34953,0.00385641,426.92,909.77,-1.9
1.72604e+09,0.27771,-0.106812,-10.3271,0.00862864,-0.0123571,0.00319579,1175,1,35.4515,139.637,-601.803,0,0,4.34953,0.00385641,427.13,909.76,-1.9
1.72604e+09,0.22583,-0.20752,-10.1196,-0.00436758,-0.0174703,0,1175,1,35.4515,139.637,-601.821,0,0,4.34382,0.00747831,427.13,909.76,-1.9
1.72604e+09,0.228882,-0.289917,-9.74121,-0.0147006,-0.0193878,-0.00223706,1175,1,35.4515,139.637,-601.834,0,0,4.33709,0.00589123,427.34,909.76,-1.9
1.72604e+09,0.170898,-0.408936,-9.62524,-0.0207727,-0.0168312,-0.00447411,1175,1,35.4515,139.637,-601.837,0,0,4.33138,0.00301501,427.34,909.76,-1.9
1.72604e+09,0.192261,-0.427246,-9.55505,-0.0252468,-0.0134223,-0.00756338,3223,1,35.4515,139.637,-601.837,0,0,4.31996,-0.000180782,427.34,909.76,-1.9
1.72604e+09,0.216675,-0.396729,-9.58252,-0.024288,-0.0108657,-0.0092678,1175,1,35.4515,139.637,-601.837,0,0,4.31996,-0.000180782,427.55,909.75,-1.9
1.72604e+09,0.234985,-0.256348,-9.6405,-0.0226901,-0.00916127,-0.00969391,1175,1,35.4515,139.637,-601.826,0,0,4.30569,-0.00465489,427.55,909.75,-1.9
1.72604e+09,0.167847,-0.0915527,-9.53369,-0.0206661,-0.00873517,-0.00852212,1175,1,35.4515,139.637,-601.815,0,0,4.29894,-0.00774397,427.76,909.74,-1.9
1.72604e+09,0.17395,0.00915527,-9.46655,-0.0185356,-0.00628506,-0.00809601,1175,1,35.4515,139.637,-601.805,0,0,4.29894,-0.0094484,427.76,909.74,-1.9
1.72604e+09,0.241089,0.20752,-9.50928,-0.0149137,-0.00287621,-0.00543285,3223,1,35.4515,139.637,-601.794,0,0,4.29894,-0.0098745,427.76,909.74,-1.9
1.72604e+09,0.161743,0.253296,-9.48486,-0.0110788,-0.00127832,-0.00191748,1175,1,35.4515,139.637,-601.794,0,0,4.29894,-0.0098745,427.97,909.74,-1.9
1.72604e+09,0.201416,0.360107,-9.55811,-0.0132093,0.00191748,-0.000958738,1175,1,35.4515,139.637,-601.775,0,0,4.29323,-0.00827661,427.97,909.74,-1.9
1.72604e+09,0.210571,0.466919,-9.56726,-0.0178964,0.00245011,0.000213053,1175,1,35.4515,139.637,-601.803,0,0,4.29213,-0.00556248,428.18,909.73,-1.9
1.72604e+09,0.234985,0.387573,-9.57947,-0.0262055,0.00511327,0.00127832,1175,1,35.4515,139.637,-601.8,0,0,4.28928,-0.00204711,428.18,909.73,-1.9
1.72604e+09,0.189209,0.314331,-9.63745,-0.0331297,0.00713727,0.00213053,3223,1,35.4515,139.637,-601.799,0,0,4.28928,-0.00108837,428.18,909.73,-1.9
1.72604e+09,0.183105,0.158691,-9.71375,-0.0348341,0.00937433,0.00234358,1175,1,35.4515,139.637,-601.799,0,0,4.28928,-0.00108837,428.39,909.72,-1.9
1.72604e+09,0.216675,-0.012207,-9.59473,-0.028123,0.00809601,0.00223706,1175,1,35.4515,139.637,-601.802,0,0,4.29213,0.00114868,428.39,909.72,-1.9
1.72604e+09,0.131226,-0.10376,-9.52759,-0.0158724,0.00820254,0.00223706,1175,1,35.4515,139.637,-601.856,0,0,4.28815,0.00207658,428.6,909.71,-1.9
1.72604e+09,0.164795,-0.0701904,-9.58557,-0.00276969,0.00948085,0.00191748,1175,1,35.4515,139.637,-601.859,0,0,4.28815,0.00228963,428.6,909.71,-1.9
1.72604e+09,0.231934,0.0244141,-9.73511,0.00830906,0.00916127,0.000532632,3223,1,35.4515,139.637,-601.861,0,0,4.28815,0.0021831,428.6,909.71,-1.9
1.72604e+09,0.20752,0.195313,-9.82361,0.00937433,0.00798948,-0.000213053,1175,1,35.4515,139.637,-601.861,0,0,4.28815,0.0021831,428.81,909.71,-1.9
1.72604e+09,0.265503,0.311279,-10.0922,0.00468716,0.00777643,-0.000852212,1175,1,35.4515,139.637,-601.866,0,0,4.28815,0.00186353,428.81,909.71,-1.9
1.72604e+09,0.317383,0.180054,-10.3851,-0.000426106,0.004048,0.000532632,1175,1,35.4515,139.637,-601.928,0,0,4.28427,0.000567508,429.02,909.7,-1.9
1.72604e+09,0.280762,0.0427246,-10.6995,-0.00479369,-0.000745685,-0.000426106,1175,1,35.4515,139.637,-601.928,0,0,4.28427,-0.000178177,429.02,909.7,-1.9
1.72604e+09,0.326538,-0.00915527,-10.7758,-0.00223706,-0.0104396,-0.00213053,3223,1,35.4515,139.637,-601.927,0,0,4.28142,-0.000817335,429.02,909.7,-1.9
1.72604e+09,0.360107,-0.17395,-10.6171,0.00191748,-0.0178964,-0.00245011,1175,1,35.4515,139.637,-601.927,0,0,4.28142,-0.000817335,429.23,909.69,-1.9
1.72604e+09,0.183105,-0.12207,-10.2844,0.00532632,-0.0230097,-0.00394148,1175,1,35.4515,139.637,-601.926,0,0,4.28427,-0.00039123,429.23,909.69,-1.9
1.72604e+09,0.128174,-0.0640869,-9.8999,0.00809601,-0.0245011,-0.00649811,1175,1,35.4515,139.637,-601.977,0,0,4.28615,-0.00201881,429.44,909.69,-1.9
1.72604e+09,0.158691,0.012207,-9.67407,0.00948085,-0.022051,-0.00692422,1175,1,35.4515,139.637,-601.974,0,0,4.2833,-0.00233839,429.44,909.69,-1.9
1.72604e+09,0.0610352,0.222778,-9.54285,0.0108657,-0.0173638,-0.00649811,3223,1,35.4515,139.637,-601.97,0,0,4.27474,-0.00382976,429.44,909.69,-1.9
1.72604e+09,0.0244141,0.128174,-9.33838,0.0116114,-0.0134223,-0.00543285,1175,1,35.4515,139.637,-601.97,0,0,4.27474,-0.00382976,429.64,909.68,-1.9
1.72604e+09,0.0976563,0.210571,-9.32007,0.0105461,-0.00916127,-0.00543285,1175,1,35.4515,139.637,-601.954,0,0,4.26619,-0.0068125,429.64,909.68,-1.9
1.72604e+09,0.100708,0.12207,-9.31702,0.0076699,-0.0056459,-0.00372843,1175,1,35.4515,139.637,-601.961,0,0,4.25953,-0.00636456,429.85,909.67,-2
1.72604e+09,0.0671387,0.158691,-9.45129,0.00191748,-0.00372843,-0.00596548,1175,1,35.4515,139.637,-601.954,0,0,4.25668,-0.0052993,429.85,909.67,-2
1.72604e+09,0.137329,0.0671387,-9.50623,-0.00745685,-0.00276969,-0.00788296,3223,1,35.4515,139.637,-601.949,0,0,4.25953,-0.0052993,429.85,909.67,-2
1.72604e+09,0.201416,0.0396729,-9.62524,-0.0168312,-0.00319579,-0.0105461,1175,1,35.4515,139.637,-601.949,0,0,4.25953,-0.0052993,430.06,909.66,-2
1.72604e+09,0.106812,-0.152588,-9.56421,-0.0223706,-0.004048,-0.0112918,1175,1,35.4515,139.637,-601.935,0,0,4.25383,-0.00583193,430.06,909.66,-2
1.72604e+09,0.125122,-0.228882,-9.48792,-0.0256729,-0.00553938,-0.0133158,1175,1,35.4515,139.637,-601.935,0,0,4.25304,-0.00773518,430.27,909.66,-2
1.72604e+09,0.119019,-0.213623,-9.38416,-0.0227967,-0.002024,-0.0148072,5271,1,35.4515,139.637,-601.923,0,0,4.25874,-0.0103983,430.27,909.66,-2
1.72604e+09,0.112915,-0.238037,-9.51843,-0.0184291,-0.000639159,-0.0152333,3223,1,35.4515,139.637,-601.911,0,0,4.25589,-0.011144,430.27,909.66,-2
1.72604e+09,0.0152588,-0.177002,-9.42688,-0.014168,0.00170442,-0.0164051,1175,1,35.4515,139.637,-601.911,0,0,4.25589,-0.011144,430.47,909.65,-2
1.72604e+09,-0.00610352,0.0823975,-9.68018,-0.0123571,0.00319579,-0.0157659,1175,1,35.4515,139.637,-601.876,0,0,4.25874,-0.0146594,430.47,909.65,-2
1.72604e+09,-0.0305176,0.15564,-9.74731,-0.0125701,0.00255663,-0.0138484,1175,1,35.4515,139.637,-601.859,0,0,4.25787,-0.0150834,430.68,909.64,-2.1
1.72604e+09,0.0305176,0.299072,-9.91516,-0.016192,0.00234358,-0.0132093,1175,1,35.4515,139.637,-601.841,0,0,4.26357,-0.0162552,430.68,909.64,-2.1
1.72604e+09,0.12207,0.354004,-9.9823,-0.0213053,0.00213053,-0.0106526,3223,1,35.4515,139.637,-601.822,0,0,4.26357,-0.0156161,430.68,909.64,-2.1
1.72604e+09,0.131226,0.350952,-10.1166,-0.0250337,-0.00106526,-0.00862864,1175,1,35.4515,139.637,-601.822,0,0,4.26357,-0.0156161,430.89,909.63,-2.1
1.72604e+09,0.189209,0.27771,-10.1593,-0.0306796,-0.00266316,-0.00745685,1175,1,35.4515,139.637,-601.793,0,0,4.28067,-0.0130594,430.89,909.63,-2.1
1.72604e+09,0.161743,0.241089,-10.1837,-0.0361125,-0.00458064,-0.00809601,1175,1,35.4515,139.637,-601.768,0,0,4.27976,-0.0105184,431.1,909.62,-2.1
1.72604e+09,0.112915,0.125122,-9.98535,-0.0373908,-0.00713727,-0.00585895,1175,1,35.4515,139.637,-601.759,0,0,4.27692,-0.00849439,431.1,909.62,-2.1
1.72604e+09,0.0793457,0.0183105,-9.91211,-0.0345146,-0.00553938,-0.00735032,3223,1,35.4515,139.637,-601.751,0,0,4.26837,-0.0073226,431.1,909.62,-2.1
1.72604e+09,0.0488281,0.0305176,-9.75342,-0.0299339,-0.00213053,-0.00681769,1175,1,35.4515,139.637,-601.751,0,0,4.26837,-0.0073226,431.31,909.61,-2.1
1.72604e+09,-0.00305176,-0.012207,-9.81445,-0.0217314,-0.00223706,-0.00649811,1175,1,35.4515,139.637,-601.737,0,0,4.26837,-0.0057247,431.31,909.61,-2.1
1.72604e+09,0.0823975,0.0183105,-9.75647,-0.0138484,-0.00181095,-0.00617853,1175,1,35.4515,139.637,-601.739,0,0,4.27023,-0.00720026,431.52,909.61,-2.2
1.72604e+09,0.183105,0.0305176,-9.97925,-0.0072438,-0.000852212,-0.00830906,1175,1,35.4515,139.637,-601.731,0,0,4.27023,-0.00666763,431.52,909.61,-2.2
1.72604e+09,0.128174,0.167847,-9.90601,-0.0056459,-0.00127832,-0.01012,3223,1,35.4515,139.637,-601.724,0,0,4.27023,-0.00634805,431.52,909.61,-2.2
1.72604e+09,0.140381,0.158691,-9.93042,-0.004048,-0.00234358,-0.0100135,1175,1,35.4515,139.637,-601.724,0,0,4.27023,-0.00634805,431.73,909.6,-2.2
1.72604e+09,0.0762939,0.22583,-9.69849,-0.00543285,-0.00340885,-0.0122505,1175,1,35.4515,139.637,-601.706,0,0,4.27593,-0.008159,431.73,909.6,-2.2
1.72604e+09,0.0549316,0.280762,-9.54285,-0.0052198,-0.0036219,-0.0129962,1175,1,35.4515,139.637,-601.686,0,0,4.27224,-0.00997882,431.93,909.59,-2.2
1.72604e+09,0.106812,0.299072,-9.62219,-0.00628506,-0.00245011,-0.011931,1175,1,35.4515,139.637,-601.676,0,0,4.26939,-0.00987229,431.93,909.59,-2.2
1.72604e+09,0.0671387,0.302124,-9.66492,-0.00617853,-0.002024,-0.0109722,3223,1,35.4515,139.637,-601.661,0,0,4.27224,-0.0121093,431.93,909.59,-2.2
1.72604e+09,0.134277,0.222778,-9.75952,-0.00372843,-0.00330232,-0.00969391,1175,1,35.4515,139.637,-601.661,0,0,4.27224,-0.0121093,432.14,909.58,-2.3
1.72604e+09,0.10376,0.222778,-9.82666,-0.0015979,-0.00383495,-0.0100135,1175,1,35.4515,139.637,-601.634,0,0,4.27224,-0.0117898,432.14,909.58,-2.3
1.72604e+09,0.0579834,0.137329,-9.76868,-0.000426106,-0.0052198,-0.00958738,1175,1,35.4515,139.637,-601.612,0,0,4.27139,-0.0108423,432.35,909.57,-2.3
1.72604e+09,0.149536,0.146484,-9.68933,0.000426106,-0.00628506,-0.01012,1175,1,35.4515,139.637,-601.602,0,0,4.27424,-0.009564,432.35,909.57,-2.3
1.72604e+09,0.0701904,0.143433,-9.51843,0.00330232,-0.0052198,-0.00916127,3223,1,35.4515,139.637,-601.591,0,0,4.27709,-0.00988358,432.35,909.57,-2.3
1.72604e+09,0.00915527,0.0732422,-9.50317,0.00479369,-0.00213053,-0.00916127,1175,1,35.4515,139.637,-601.591,0,0,4.27709,-0.00988358,432.56,909.56,-2.3
1.72604e+09,0.0183105,0.128174,-9.35364,0.00490022,0.000958738,-0.00916127,1175,1,35.4515,139.637,-601.568,0,0,4.28278,-0.00999011,432.56,909.56,-2.3
1.72604e+09,0.0518799,0.158691,-9.34143,0.00532632,0.00628506,-0.00884169,1175,1,35.4515,139.637,-601.537,0,0,4.27629,-0.00905734,432.77,909.55,-2.3
1.72604e+09,0.00610352,0.0701904,-9.47876,0.00191748,0.00948085,-0.00735032,1175,1,35.4515,139.637,-601.527,0,0,4.27344,-0.00905734,432.77,909.55,-2.3
1.72604e+09,0.0549316,-0.0305176,-9.68628,-0.00106526,0.013955,-0.00862864,3223,1,35.4515,139.637,-601.517,0,0,4.27914,-0.00905734,432.77,909.55,-2.3
1.72604e+09,0.0579834,0.131226,-9.70459,-0.002024,0.0132093,-0.00916127,1175,1,35.4515,139.637,-601.517,0,0,4.27914,-0.00905734,432.98,909.54,-2.4
1.72604e+09,0.0640869,0.012207,-9.8938,-0.000319579,0.0120375,-0.00809601,1175,1,35.4515,139.637,-601.5,0,0,4.28199,-0.00724639,432.98,909.54,-2.4
1.72604e+09,0.0396729,0.125122,-9.95789,-0.00415453,0.0111853,-0.00798948,1175,1,35.4515,139.637,-601.491,0,0,4.28682,-0.0085222,433.19,909.53,-2.4
1.72604e+09,0.0274658,0.137329,-9.91211,-0.00426106,0.00777643,-0.00617853,1175,1,35.4515,139.637,-601.481,0,0,4.29251,-0.00905484,433.19,909.53,-2.4
1.72604e+09,0.00305176,0.189209,-9.86328,-0.00596548,0.00490022,-0.0052198,3223,1,35.4515,139.637,-601.471,0,0,4.29536,-0.00798957,433.19,909.53,-2.4
1.72604e+09,-0.0335693,0.167847,-9.81445,-0.0076699,0.00426106,-0.000745685,1175,1,35.4515,139.637,-601.471,0,0,4.29536,-0.00798957,433.4,909.53,-2.4
1.72604e+09,0.00305176,0.259399,-9.87854,-0.00798948,0.00319579,0.00127832,1175,1,35.4515,139.637,-601.458,0,0,4.30105,-0.0060721,433.4,909.53,-2.4
1.72604e+09,-0.0244141,0.152588,-9.84497,-0.00788296,0.0015979,0.00596548,1175,1,35.4515,139.637,-601.457,0,0,4.3002,-0.00510352,433.61,909.52,-2.3
1.72604e+09,0,0.112915,-9.90295,-0.0122505,0.00117179,0.00735032,1175,1,35.4515,139.637,-601.457,0,0,4.30305,-0.000629405,433.61,909.52,-2.3
1.72604e+09,-0.0152588,0.088501,-9.93958,-0.0168312,-0.00170442,0.00852212,3223,1,35.4515,139.637,-601.458,0,0,4.30305,0.0013946,433.61,909.52,-2.3
1.72604e+09,0.0244141,-0.00610352,-9.93958,-0.0201335,-0.000106526,0.00852212,1175,1,35.4515,139.637,-601.458,0,0,4.30305,0.0013946,433.82,909.51,-2.3
1.72604e+09,-0.012207,-0.143433,-9.95483,-0.022051,0.000319579,0.00756338,1175,1,35.4515,139.637,-601.475,0,0,4.30874,0.0074666,433.82,909.51,-2.3
1.72604e+09,-0.00305176,-0.0701904,-10.0647,-0.0237554,-0.000213053,0.00628506,1175,1,35.4515,139.637,-601.472,0,0,4.30495,0.00862053,434.03,909.5,-2.3
1.72604e+09,0.0244141,-0.180054,-10.0616,-0.0235423,-0.00298274,0.00511327,1175,1,35.4515,139.637,-601.481,0,0,4.30495,0.00862053,434.03,909.5,-2.3
1.72604e+09,-0.0518799,-0.137329,-9.97314,-0.0232228,-0.00330232,0.0036219,3223,1,35.4515,139.637,-601.49,0,0,4.31064,0.0076618,434.03,909.5,-2.3
1.72604e+09,0.00305176,-0.0915527,-9.97925,-0.0201335,-0.0052198,0.000852212,1175,1,35.4515,139.637,-601.49,0,0,4.31064,0.0076618,434.24,909.49,-2.3
1.72604e+09,-0.00305176,0.0457764,-9.93652,-0.0157659,-0.00681769,0.000319579,1175,1,35.4515,139.637,-601.502,0,0,4.31633,0.00521169,434.24,909.49,-2.3
1.72604e+09,-0.0274658,0.152588,-10.0403,-0.0152333,-0.00841559,0.000532632,1175,1,35.4515,139.637,-601.501,0,0,4.31551,0.00371414,434.45,909.49,-2.3
1.72604e+09,-0.0366211,0.250244,-9.86633,-0.0153398,-0.0111853,0.000958738,5271,1,35.4515,139.637,-601.502,0,0,4.31835,0.000944456,434.45,909.49,-2.3
1.72604e+09,-0.0396729,0.296021,-9.8175,-0.0172573,-0.0122505,0.002024,3223,1,35.4515,139.637,-601.502,0,0,4.31835,0.000411824,434.45,909.49,-2.3
1.72604e+09,-0.012207,0.286865,-9.77478,-0.0184291,-0.0122505,0.00223706,1175,1,35.4515,139.637,-601.502,0,0,4.31835,0.000411824,434.66,909.48,-2.3
1.72604e+09,-0.0457764,0.250244,-9.68628,-0.0157659,-0.0149137,0.00500674,1175,1,35.4515,139.637,-601.505,0,0,4.31835,0.00105098,434.66,909.48,-2.3
1.72604e+09,-0.0579834,0.20752,-9.60693,-0.0111853,-0.0133158,0.00649811,1175,1,35.4515,139.637,-601.508,0,0,4.31755,0.00211903,434.88,909.47,-2.3
1.72604e+09,-0.0396729,0.15564,-9.55505,-0.00436758,-0.0143811,0.0072438,1175,1,35.4515,139.637,-601.511,0,0,4.32323,0.00233208,434.88,909.47,-2.3
1.72604e+09,-0.115967,0.17395,-9.38721,0.000745685,-0.00937433,0.00884169,3223,1,35.4515,139.637,-601.516,0,0,4.32323,0.00510177,434.88,909.47,-2.3
1.72604e+09,-0.0457764,0.268555,-9.60388,0.00383495,-0.00852212,0.00820254,1175,1,35.4515,139.637,-601.516,0,0,4.32323,0.00510177,435.09,909.46,-2.2
1.72604e+09,-0.0335693,0.228882,-9.6344,0.000745685,-0.00681769,0.00884169,1175,1,35.4515,139.637,-601.533,0,0,4.32892,0.00733883,435.09,909.46,-2.2
1.72604e+09,-0.0244141,0.253296,-9.82056,-0.00436758,-0.00660464,0.00862864,1175,1,35.4515,139.637,-601.525,0,0,4.33087,0.00891266,435.3,909.45,-2.2
1.72604e+09,-0.0396729,0.112915,-9.87244,-0.00649811,-0.0108657,0.00980043,1175,1,35.4515,139.637,-601.535,0,0,4.33087,0.0082735,435.3,909.45,-2.2
1.72604e+09,0.0244141,-0.0457764,-9.94263,-0.00308927,-0.0118244,0.00990696,3223,1,35.4515,139.637,-601.545,0,0,4.3394,0.00891266,435.3,909.45,-2.2
1.72604e+09,0.0366211,-0.152588,-9.94873,-0.000852212,-0.0152333,0.00798948,1175,1,35.4515,139.637,-601.545,0,0,4.3394,0.00891266,435.51,909.45,-2.2
1.72604e+09,-0.0183105,-0.0488281,-9.87244,0.00170442,-0.0170442,0.00436758,1175,1,35.4515,139.637,-601.567,0,0,4.34793,0.00987139,435.51,909.45,-2.2
1.72604e+09,0,-0.0854492,-9.78088,0.000639159,-0.018216,0.00575243,1175,1,35.4515,139.637,-601.57,0,0,4.34992,0.00996689,435.73,909.44,-2.2
1.72604e+09,-0.088501,-0.0549316,-9.69849,-0.00106526,-0.0165116,0.004048,1175,1,35.4515,139.637,-601.579,0,0,4.34992,0.00804941,435.73,909.44,-2.2
1.72604e+09,-0.0152588,0.0274658,-9.63135,-0.00170442,-0.0153398,0.0036219,3223,1,35.4515,139.637,-601.584,0,0,4.35276,0.00442751,435.73,909.44,-2.2
1.72604e+09,0,-0.0823975,-9.64355,-0.00319579,-0.0129962,0.00255663,1175,1,35.4515,139.637,-601.584,0,0,4.35276,0.00442751,435.94,909.43,-2.2
1.72604e+09,-0.0854492,0.0213623,-9.71375,-0.0036219,-0.00873517,0.000532632,1175,1,35.4515,139.637,-601.594,0,0,4.36129,0.00410793,435.94,909.43,-2.2
1.72604e+09,0.0244141,-0.0579834,-9.75037,-0.00468716,-0.00894822,0,1175,1,35.4515,139.637,-601.579,0,0,4.36331,0.00365686,436.15,909.42,-2.2
1.72604e+09,-0.0244141,0.0854492,-9.73511,-0.00575243,-0.00830906,-0.00149137,1175,1,35.4515,139.637,-601.582,0,0,4.36615,0.0025916,436.15,909.42,-2.2
1.72604e+09,-0.0579834,0.115967,-9.74121,-0.00841559,-0.00607201,0.000426106,3223,1,35.4515,139.637,-601.583,0,0,4.36899,0.000567593,436.15,909.42,-2.2
1.72604e+09,-0.00610352,0.0671387,-9.75342,-0.00745685,-0.00639159,-0.00138484,1175,1,35.4515,139.637,-601.583,0,0,4.36899,0.000567593,436.37,909.41,-2.2
1.72604e+09,-0.00305176,0.0915527,-9.83887,-0.00617853,-0.00617853,-0.0015979,1175,1,35.4515,139.637,-601.58,0,0,4.38036,-0.00145641,436.37,909.41,-2.2
1.72604e+09,0.0305176,0.0976563,-9.85718,-0.00479369,-0.00745685,-0.00223706,1175,1,35.4515,139.637,-601.577,0,0,4.37957,0.000458356,436.58,909.41,-2.1
1.72604e+09,0.012207,0.213623,-9.80835,-0.00553938,-0.00660464,-0.00276969,1175,1,35.4515,139.637,-601.576,0,0,4.37957,-0.00135259,436.58,909.41,-2.1
1.72604e+09,-0.0152588,0.213623,-9.70154,-0.00948085,-0.00458064,-0.00138484,3223,1,35.4515,139.637,-601.574,0,0,4.38526,-0.00156565,436.58,909.41,-2.1
1.72604e+09,-0.0671387,0.216675,-9.60999,-0.0115049,-0.00447411,-0.00191748,1175,1,35.4515,139.637,-601.574,0,0,4.38526,-0.00156565,436.8,909.4,-2.1
1.72604e+09,-0.012207,0.0823975,-9.60388,-0.0111853,-0.00276969,-0.000852212,1175,1,35.4515,139.637,-601.568,0,0,4.39094,-0.00273744,436.8,909.4,-2.1
1.72604e+09,-0.0579834,0.131226,-9.63745,-0.01012,0.000639159,-0.00138484,1175,1,35.4515,139.637,-601.552,0,0,4.38724,-0.00137049,437.01,909.39,-2.1
1.72604e+09,-0.0335693,0.128174,-9.68323,-0.00394148,0.000426106,0.000213053,1175,1,35.4515,139.637,-601.55,0,0,4.39008,-0.00190312,437.01,909.39,-2.1
1.72604e+09,-0.0427246,0.0640869,-9.67712,0.000958738,0.00170442,0.00181095,3223,1,35.4515,139.637,-601.549,0,0,4.3986,-0.000837856,437.01,909.39,-2.1
1.72604e+09,-0.0274658,0.152588,-9.61304,0.00447411,-0.000106526,0.00223706,1175,1,35.4515,139.637,-601.549,0,0,4.3986,-0.000837856,437.23,909.38,-2.1
1.72604e+09,-0.0488281,0.20752,-9.66797,0.00468716,0.000852212,0.00340885,1175,1,35.4515,139.637,-601.55,0,0,4.41281,0.000227409,437.23,909.38,-2.1
1.72604e+09,-0.0549316,0.234985,-9.68018,0.00330232,0.000426106,0.00426106,1175,1,35.4515,139.637,-601.553,0,0,4.42045,0.00182879,437.44,909.37,-2.1
1.72604e+09,-0.0518799,0.195313,-9.68933,0.00234358,0.000745685,0.00511327,1175,1,35.4515,139.637,-601.556,0,0,4.42329,0.00225489,437.44,909.37,-2.1
1.72604e+09,-0.012207,0.146484,-9.75952,0.000852212,-0.000319579,0.00649811,3223,1,35.4515,139.637,-601.56,0,0,4.42329,0.00342668,437.44,909.37,-2.1
1.72604e+09,-0.0671387,0.0762939,-9.77783,0.000213053,-0.00245011,0.00681769,1175,1,35.4515,139.637,-601.56,0,0,4.42329,0.00342668,437.66,909.37,-2.1
1.72604e+09,-0.0244141,0.0244141,-9.80225,0.00223706,-0.004048,0.00671117,1175,1,35.4515,139.637,-601.572,0,0,4.42897,0.00513111,437.66,909.37,-2.1
1.72604e+09,-0.0457764,-0.0183105,-9.69543,0.00117179,-0.00511327,0.00777643,1175,1,35.4515,139.637,-601.568,0,0,4.43093,0.00650186,437.88,909.36,-2.1
1.72604e+09,-0.0762939,0.0244141,-9.68018,-0.0015979,-0.00426106,0.00490022,1175,1,35.4515,139.637,-601.576,0,0,4.43945,0.00682144,437.88,909.36,-2.1
1.72604e+09,-0.106812,-0.0518799,-9.60999,-0.00671117,-0.00458064,0.00394148,3223,1,35.4515,139.637,-601.583,0,0,4.43945,0.00671491,437.88,909.36,-2.1
1.72604e+09,-0.112915,-0.0427246,-9.39331,-0.00809601,-0.00181095,0.00266316,1175,1,35.4515,139.637,-601.583,0,0,4.43945,0.00671491,438.09,909.35,-2.1
1.72604e+09,-0.0793457,-0.0701904,-9.4635,-0.00692422,-0.000106526,0.0036219,1175,1,35.4515,139.637,-601.595,0,0,4.44229,0.00490396,438.09,909.35,-2.1
1.72604e+09,-0.134277,-0.0701904,-9.70154,-0.00415453,0.0036219,0.00319579,1175,1,35.4515,139.637,-601.57,0,0,4.4442,0.00390541,438.31,909.34,-2.1
1.72604e+09,-0.0213623,-0.00305176,-9.95178,-0.00553938,0.00351537,0.0015979,1175,1,35.4515,139.637,-601.573,0,0,4.44988,0.0026271,438.31,909.34,-2.1
1.72604e+09,-0.0274658,0.134277,-9.90295,-0.01012,-0.00149137,0.00234358,3223,1,35.4515,139.637,-601.577,0,0,4.45555,0.00358583,438.31,909.34,-2.1
1.72604e+09,-0.0854492,0.0213623,-9.89075,-0.0122505,-0.00330232,0.00213053,1175,1,35.4515,139.637,-601.577,0,0,4.45555,0.00358583,438.53,909.34,-2
1.72604e+09,-0.012207,0.0213623,-10.0189,-0.0160855,-0.00308927,0.00117179,1175,1,35.4515,139.637,-601.581,0,0,4.46691,0.00156183,438.53,909.34,-2
1.72604e+09,-0.0488281,0.125122,-9.91211,-0.0181095,-0.00308927,0.000532632,1175,1,35.4515,139.637,-601.557,0,0,4.47455,0.00227182,438.75,909.33,-2
1.72604e+09,-0.0427246,0.0854492,-9.87854,-0.0191748,-0.00319579,0.00170442,5271,1,35.4515,139.637,-601.559,0,0,4.47739,0.00205876,438.75,909.33,-2
1.72604e+09,-0.106812,0.0732422,-9.82056,-0.0190682,-0.00308927,0.00106526,3223,1,35.4515,139.637,-601.561,0,0,4.47739,0.00110003,438.75,909.33,-2
1.72604e+09,-0.0518799,0.0976563,-9.81445,-0.0181095,-0.000639159,0.002024,1175,1,35.4515,139.637,-601.561,0,0,4.47739,0.00110003,438.97,909.32,-2
1.72604e+09,-0.0762939,0.088501,-9.82666,-0.0132093,-0.000958738,0.002024,1175,1,35.4515,139.637,-601.564,0,0,4.4859,0.00163266,438.97,909.32,-2
1.72604e+09,-0.0946045,0.10376,-9.76868,-0.00788296,0.000532632,0.00383495,1175,1,35.4515,139.637,-601.548,0,0,4.48783,0.000970804,439.19,909.31,-2
1.72604e+09,-0.0305176,0.183105,-9.83276,-0.00426106,0.000532632,0.00308927,1175,1,35.4515,139.637,-601.55,0,0,4.49067,0.00192954,439.19,909.31,-2
1.72604e+09,0.0213623,0.183105,-10.0616,-0.000958738,0,0.00436758,3223,1,35.4515,139.637,-601.553,0,0,4.49635,0.00192954,439.19,909.31,-2
1.72604e+09,-0.00610352,0.256348,-10.1349,-0.000639159,-0.00191748,0.004048,1175,1,35.4515,139.637,-601.553,0,0,4.49635,0.00192954,439.41,909.31,-2
1.72604e+09,0.0244141,0.222778,-10.1868,-0.00223706,-0.00436758,0.00458064,1175,1,35.4515,139.637,-601.559,0,0,4.5077,0.00299481,439.41,909.31,-2
